ACC X (m/s2),ACC Y (m/s2),ACC Z (m/s2),GRAV X (m/s2),GRAV Y (m/s2),GRAV Z (m/s2),LIN ACC X (m/s2),LIN ACC Y (m/s2),LIN ACC Z (m/s2),GYRO X (rad/s),GYRO Y (rad/s),GYRO Z (rad/s),LIGHT (lux),MAG FIELD X (T),MAG FIELD Y (T),MAG FIELD Z (T),ORIENT Z (deg),ORIENT X (deg),ORIENT Y (deg),PROXIMITY (m),SOUND LEVEL (dB),LOC LAT ,LOC LON,LOC ALT (m),LOC SPEED (Km/h),LOC ACCURACY (m),LOC ORIENT (deg),SAT IN RANGE,TIME (ms),YYYY-MO-DD HH-MI-SS_SSS
0.0034,7.0659,2.2329,0.6858,9.0138,3.8014,-0.384,-1.021,1.4698,0.2514,0.1639,0.2165,0,33.5,-92.84,-94.74,303.38,-63.77,-12.54,5,47.99,48.163433,11.558957,591,2.23,11.792,0,0 / 22,13,2018-11-08 17:58:54:261
0.1325,9.0247,3.1223,0.3592,9.0074,3.8611,-0.2949,1.0702,-0.0647,-0.3931,-0.1387,-0.0504,0,31.85,-92.31,-95.97,320.07,-66.71,-5.32,5,66.995,48.163433,11.558957,591,2.23,11.792,0,0 / 22,2013,2018-11-08 17:58:56:261
2.6532,9.1821,1.7679,0.8374,8.9874,3.8335,0.8663,-0.1038,-1.8458,-0.732,0.2172,-0.2415,0,28.73,-94.61,-94.61,322.07,-58.47,2.33,5,52.535,48.163433,11.558957,591,2.23,11.792,0,0 / 22,4012,2018-11-08 17:58:58:260
-3.3844,5.2324,-5.559,-5.8874,7.378,-2.6598,-3.2002,-0.4819,-2.3648,0.8948,-0.5103,-0.9662,0,43.51,-85.87,-85.3,336.06,-64.18,14.86,5,46.252,48.163433,11.558957,591,2.23,11.792,0,0 / 22,6013,2018-11-08 17:59:00:261
-4.8772,9.0348,5.3482,-5.2766,8.2545,-0.4368,0.3114,-1.0491,0.6683,0.5446,0.4203,-0.2217,0,39.16,-75.13,-108.53,50.95,-55.58,46.72,0,51.313,48.163433,11.558957,591,2.23,11.792,0,0 / 22,8012,2018-11-08 17:59:02:260
-2.594,8.1394,1.2722,-1.8201,9.567,1.153,-1.0576,-0.6401,-0.5062,0.8346,-0.2166,0.0473,0,30.86,-91.8,-98.97,116.6,-65.99,115.85,0,53.849,48.163433,11.558957,591,2.23,11.792,0,0 / 22,10012,2018-11-08 17:59:04:260
-3.1292,7.4592,0.9048,-2.8836,9.3238,-0.9597,2.895,-3.9232,3.2472,-0.2068,-0.7338,0.4205,0,39.08,-93.55,-84.97,129.15,-61.95,134.16,0,53.258,48.163433,11.558957,591,2.23,11.792,0,0 / 22,12012,2018-11-08 17:59:06:260
1.8895,8.182,0.45,-0.4264,9.6972,-1.3977,0.0867,0.9775,0.3344,-1.0318,3.1292,0.1445,0,34.06,-100.01,-87.65,112.17,-81.71,125.3,0,54.166,48.163433,11.558957,591,2.23,11.792,0,0 / 22,14013,2018-11-08 17:59:08:261
-1.9052,10.7429,-3.9571,-1.1076,9.7437,-0.0661,-1.305,0.0417,1.5815,-0.2784,-0.1745,-0.2122,0,43.02,-101.26,-79.79,137.1,-70.04,151.72,0,51.259,48.163433,11.558957,591,2.23,11.792,0,0 / 22,16012,2018-11-08 17:59:10:260
-0.9662,9.1127,0.4955,-0.6684,9.7384,-0.9422,1.3783,2.6011,2.0012,0.4528,1.5672,-0.4597,0,44.35,-102.76,-97.56,5.22,-80.09,28.46,0,55.358,48.163433,11.558957,591,2.23,11.792,0,0 / 22,18012,2018-11-08 17:59:12:260
-2.7804,11.3416,0.2414,0.3486,9.4982,2.4152,-1.541,1.8426,-1.233,-0.81,-0.5828,0.3924,0,37.11,-97.5,-98.67,84.94,-82.14,98.14,0,50.72,48.163433,11.558957,591,2.23,11.792,0,0 / 22,20012,2018-11-08 17:59:14:260
-0.2111,8.6265,0.1755,-0.4185,9.6365,1.7702,-0.948,-0.4463,-0.9161,-0.7579,-0.4119,0.0311,0,36.01,-97.11,-77.53,131.95,-75.2,145.06,0,56.116,48.163433,11.558957,591,2.23,11.792,0,0 / 22,22012,2018-11-08 17:59:16:260
1.059,9.745,-4.2063,-0.1151,9.7829,-0.6716,-0.8301,-0.5237,1.8153,-1.1213,1.3343,0.4099,0,32.9,-99.68,-66.11,159.4,-72.09,178.4,0,55.051,48.163433,11.558957,591,2.23,11.792,0,0 / 22,24013,2018-11-08 17:59:18:261
2.8217,13.151,0.5048,0.2327,9.5269,2.3138,-1.1931,2.1958,-1.8187,2.0721,-0.8752,-1.4268,0,28.1,-98.39,-90.88,4.99,-84.43,21.57,0,55.021,48.163433,11.558957,591,2.23,11.792,0,0 / 22,26012,2018-11-08 17:59:20:260
-0.8676,9.127,1.5391,0.3109,9.6252,1.852,-1.0462,-0.2401,-0.9425,-0.7932,-0.7775,0.3458,0,24.06,-97.92,-87.6,135.21,-75.35,140.19,0,49.091,48.163433,11.558957,591,2.23,11.792,0,0 / 22,28013,2018-11-08 17:59:22:261
-0.1147,8.3019,0.2798,-0.8513,9.753,-0.5702,-1.5795,0.4099,4.0589,-1.3867,-0.5165,1.0924,0,23.94,-99.82,-89.56,114.64,-84,123.81,0,55.254,48.163433,11.558957,591,2.23,11.792,0,0 / 22,30012,2018-11-08 17:59:24:260
-0.3588,8.3316,0.903,0.1128,9.5404,-2.2667,2.4649,-1.0092,-1.0298,1.5181,0.5919,-1.4635,0,29.96,-101.72,-70.68,164.3,-76.62,-177.15,0,56.931,48.163433,11.558957,591,2.23,11.792,0,0 / 22,32013,2018-11-08 17:59:26:261
-2.2141,11.9454,1.008,0.3563,9.4189,2.707,0.4931,1.7297,-1.5651,3.3915,0.2886,-0.4429,0,27.53,-101.2,-81.15,319.89,-73.83,-7.5,0,51.783,48.163433,11.558957,591,2.23,11.792,0,0 / 22,34013,2018-11-08 17:59:28:261
-1.2025,8.2081,0.6979,-0.1776,9.7172,1.3094,-0.5219,-0.4647,-0.4854,-1.3099,-0.3966,0.1686,0,24.55,-99.4,-97.59,352.33,-82.26,7.72,0,52.986,48.163433,11.558957,591,2.23,11.792,0,0 / 22,36013,2018-11-08 17:59:30:261
-0.642,7.0201,6.0409,-1.5511,9.5835,-1.3859,2.099,7.7579,0.5321,-1.082,-0.6733,0.6926,0,34.34,-108.28,-80.18,141.22,-68.84,149.43,0,57.302,48.163433,11.558957,591,2.23,11.792,0,0 / 22,38013,2018-11-08 17:59:32:261
2.2792,13.352,0.6001,-1.8219,9.103,-3.1601,2.1375,-4.3627,1.0434,2.5926,0.133,-0.7592,0,42.12,-107.38,-84.15,138.28,-68.16,150.03,0,54.314,48.163433,11.558957,591,2.23,11.792,0,22-Aug,40012,2018-11-08 17:59:34:260
-0.9199,8.7296,0.8071,0.0943,9.7098,1.3714,-1.0432,-0.2659,-1.242,-0.4914,0.1561,0.2999,0,37.47,-112.46,-83.66,326.62,-81.94,-3.93,0,48.657,48.163433,11.558957,591,2.23,11.792,0,0 / 22,42013,2018-11-08 17:59:36:261
-2.0173,9.2383,3.7124,-0.1766,9.4742,-2.5258,0.4417,2.5591,-0.8211,-0.6525,1.0458,0.4839,0,39.45,-108.22,-77.85,156.18,-75.04,176,0,57.616,48.163433,11.558957,591,2.23,11.792,0,0 / 22,44012,2018-11-08 17:59:38:260
0.0846,7.6498,-4.0882,-1.4394,9.1116,-3.3283,0.3449,-3.9172,3.1201,1.6014,0.0639,-1.5954,0,38.91,-102.2,-65.7,142.09,-68.3,156.61,0,55.283,48.163433,11.558957,591,2.23,11.792,0,0 / 22,46012,2018-11-08 17:59:40:260
0.0097,8.608,1.8061,-0.0924,9.6769,-1.5871,1.7192,4.1478,1.9279,2.25,-0.443,-0.8391,0,33.8,-103.13,-78.37,157.21,-80.67,176.67,0,43.678,48.163433,11.558957,591,2.23,11.792,0,0 / 22,48013,2018-11-08 17:59:42:261
-0.4001,7.8344,0.4146,-0.5386,9.788,-0.2733,-2.5407,2.6935,4.1932,-1.2218,-0.071,0.5173,0,21.78,-97.91,-99.39,107.6,-86.47,116.9,0,58.908,48.163433,11.558957,591,2.23,11.792,0,0 / 22,50012,2018-11-08 17:59:44:260
-3.0832,9.8885,4.4945,-1.5848,9.4684,-2.0018,2.792,4.0426,0.1104,-1.2746,-0.1738,0.3544,0,26.42,-97.06,-91.74,135.67,-74.91,141.63,0,55.502,48.163433,11.558957,591,2.23,11.792,0,0 / 22,52012,2018-11-08 17:59:46:260
-2.5048,12.0645,-7.7531,-1.8757,9.1001,-3.1369,1.1314,-3.7531,0.7862,0.9229,1.5896,-1.1241,0,35.31,-99.72,-80.24,139.86,-68.12,149.12,0,57.757,48.163433,11.558957,591,2.23,11.792,0,0 / 22,54013,2018-11-08 17:59:48:261
-0.1975,8.7079,1.6059,0.1771,9.787,0.5947,-0.7536,1.7582,-0.8074,3.0512,0.2388,-0.7251,0,32.2,-103.9,-89.02,321.08,-86.37,-16.58,0,45.218,48.163433,11.558957,591,2.23,11.792,0,0 / 22,56012,2018-11-08 17:59:50:260
0.0912,8.4466,-0.207,-0.9101,9.695,-1.1615,0.6445,-2.9138,2.7676,-1.0069,0.5933,0.6563,0,31.92,-99.49,-95.81,129.71,-81.35,141.92,0,53.189,48.163433,11.558957,591,2.23,11.792,0,0 / 22,58012,2018-11-08 17:59:52:260
-2.6526,11.2459,-6.3133,-1.7966,9.1549,-3.0217,1.736,-4.0641,1.2489,-0.1909,0.0822,-0.4772,0,38.3,-96.27,-76.42,137.22,-68.99,149.27,0,57.022,48.163433,11.558957,591,2.23,11.792,0,0 / 22,60013,2018-11-08 17:59:54:261
0.0611,10.2787,-1.6215,0.5627,9.6935,1.375,-1.6464,2.0579,-0.601,-0.0238,-0.5294,0.1747,0,30.23,-97.02,-82.95,310.18,-81.29,-22.26,0,47.969,48.163433,11.558957,591,2.23,11.792,0,0 / 22,62013,2018-11-08 17:59:56:261
-2.6914,8.422,1.7533,0.2441,9.6035,1.9706,-1.0478,-0.4663,-0.9182,-0.8417,-0.5336,0.2942,0,24.95,-94.02,-96.19,332.8,-78.32,-7.06,0,49.691,48.163433,11.558957,591,2.23,11.792,0,0 / 22,64012,2018-11-08 17:59:58:260
-2.3546,11.202,-6.3323,-1.599,9.1353,-3.1876,2.3629,-4.1832,1.9779,-1.0548,0.334,0.4774,0,35.81,-94.72,-80.93,141.77,-68.68,153.36,0,52.315,48.163433,11.558957,591,2.23,11.792,0,0 / 22,66013,2018-11-08 18:00:00:261
-0.9588,9.6748,0.727,0.457,9.7804,0.5522,1.1676,2.3347,-1.1522,1.4986,-0.1596,-1.4767,0,34.91,-94.36,-79.57,292.52,-85.81,-39.62,0,54.732,48.163433,11.558957,591,2.23,11.792,0,0 / 22,68012,2018-11-08 18:00:02:260
0.2958,10.3611,1.0143,0.7223,9.5111,2.2776,-0.5112,-0.1517,-1.2442,-0.8555,-1.0529,0.1907,0,21.47,-94.73,-99.01,321.24,-75.9,-17.6,0,50.299,48.163433,11.558957,591,2.23,11.792,0,0 / 22,70013,2018-11-08 18:00:04:261
-0.664,10.0927,-2.4534,-0.3516,9.7809,0.6163,0.7273,-0.7682,-0.3826,-0.8903,0.4177,0.8171,0,26.1,-93.86,-95.99,15.64,-85.85,29.7,0,53.844,48.163433,11.558957,591,2.23,11.792,0,0 / 22,72012,2018-11-08 18:00:06:260
0.4803,7.674,-2.2019,0.288,9.583,-2.0627,0.549,-0.8535,-2.3428,0.1144,-0.8227,0.4237,0,32.01,-95.07,-75.5,167.61,-77.74,-172.05,0,49.855,48.163433,11.558957,591,2.23,11.792,0,0 / 22,74013,2018-11-08 18:00:08:261
-0.5698,4.9954,-1.0973,-0.2943,9.6649,-1.6354,2.9053,4.0351,2.2022,0.9653,1.5567,-0.9085,0,34.19,-95.4,-76.54,150.96,-80.24,169.8,0,50.462,48.163433,11.558957,591,2.23,11.792,0,0 / 22,76012,2018-11-08 18:00:10:260
-3.3305,11.0008,1.3606,0.4436,9.4891,2.4354,-1.0986,0.6862,-0.7782,-0.8631,-0.8695,0.1889,0,18.36,-96.25,-100.02,332.29,-75.38,-10.32,0,52.131,48.163433,11.558957,591,2.23,11.792,0,0 / 22,78013,2018-11-08 18:00:12:261
-0.0995,12.2975,-2.2326,-0.096,9.8047,0.1678,0.7119,-0.4485,-0.3321,-1.51,-1.3399,1.1647,0,21.59,-101.31,-91.49,16.54,-88.87,29.78,0,52.026,48.163433,11.558957,591,2.23,11.792,0,0 / 22,80013,2018-11-08 18:00:14:261
0.1858,4.3269,-1.5427,-1.6091,9.2576,-2.8067,0.6197,-2.1814,3.4214,0.8895,2.0413,-1.2652,0,31.94,-98.59,-69.54,140.15,-70.74,150.17,0,57.263,48.163433,11.558957,591,2.23,11.792,0,0 / 22,82012,2018-11-08 18:00:16:260
-1.5889,8.9157,1.6103,-0.1601,9.4867,2.4793,-0.321,0.4024,-1.9931,-0.3284,-1.3335,-0.0316,0,26.39,-100.13,-85.32,340.67,-75.32,3.69,0,48.094,48.163433,11.558957,591,2.23,11.792,0,0 / 22,84013,2018-11-08 18:00:18:261
-0.18,7.7065,0.5085,-0.771,9.7471,-0.7545,-1.5545,0.179,4.1645,0.2378,-0.2065,-0.499,0,30.24,-97.41,-86.42,120.8,-83.68,134.38,0,52.118,48.163433,11.558957,591,2.23,11.792,0,0 / 22,86012,2018-11-08 18:00:20:260
-0.1255,5.396,0.074,-1.3309,9.3388,-2.6808,-3.1416,1.7437,-3.7825,-0.2608,0.4114,-0.0464,0,31.61,-97.33,-80.42,142.69,-72.23,153.6,0,57.516,48.163433,11.558957,591,2.23,11.792,0,0 / 22,88013,2018-11-08 18:00:22:261
2.5404,11.3146,-2.1593,0.7297,9.4814,2.396,0.1838,1.7541,-2.0392,1.1639,1.1311,-0.9728,0,33.41,-95.82,-70.49,300.76,-75.2,-16.94,0,56.123,48.163433,11.558957,591,2.23,11.792,0,0 / 22,90013,2018-11-08 18:00:24:261
-0.1921,11.299,0.7769,0.7487,9.5307,2.1854,-1.2901,0.7719,-1.9169,-0.3822,-0.5725,0.3554,0,22.16,-98.86,-91.34,316.72,-76.38,-18.91,0,48.678,48.163433,11.558957,591,2.23,11.792,0,0 / 22,92012,2018-11-08 18:00:26:260
0.3301,9.0057,-0.5912,0.1498,9.7406,1.1267,-0.4348,-1.2503,-0.4515,-1.0703,0.0738,0.4086,0,21.57,-94.39,-96.8,337.06,-83.34,-7.57,0,57.726,48.163433,11.558957,591,2.23,11.792,0,0 / 22,94012,2018-11-08 18:00:28:260
-3.686,6.8652,-3.7551,-0.4227,9.7974,0.0425,-0.6847,-0.7644,0.0449,-0.7791,-0.4982,-0.0477,0,27.55,-95.71,-89.64,69.36,-87.52,84.25,0,55.458,48.163433,11.558957,591,2.23,11.792,0,0 / 22,96013,2018-11-08 18:00:30:261
0.4267,4.0096,-1.7611,-1.4832,9.4022,-2.3599,-0.7357,0.1058,3.2492,-0.2922,0.4095,-0.2896,0,34.9,-94.94,-78.39,135.53,-73.49,147.85,0,57.279,48.163433,11.558957,591,2.23,11.792,0,0 / 22,98012,2018-11-08 18:00:32:260
0.3885,10.7653,-1.6292,0.4978,9.6842,1.4626,-2.8286,3.5224,-0.0548,1.447,0.1845,-0.4819,0,33.15,-96.91,-79.68,310.68,-80.94,-18.8,0,47.647,48.163433,11.558957,591,2.23,11.792,0,0 / 22,100013,2018-11-08 18:00:34:261
-1.5733,10.8428,0.225,0.7787,9.4861,2.3617,-1.618,0.4244,-1.3905,0.0804,-0.2296,0.1448,0,21.61,-96.82,-96.72,318.45,-75.31,-18.25,0,55.122,48.163433,11.558957,591,2.23,11.792,0,0 / 22,102012,2018-11-08 18:00:36:260
-0.4907,5.3062,-1.8124,-0.4323,9.7669,0.7694,1.9954,-1.2784,-1.1897,-0.9407,0.0159,0.6964,0,30.53,-98.69,-80.45,9.13,-84.84,29.33,0,58.826,48.163433,11.558957,591,2.23,11.792,0,0 / 22,104012,2018-11-08 18:00:38:260
-1.5796,5.5884,-2.7524,-1.6633,9.3686,-2.3735,1.3358,-2.3568,2.0551,-0.2312,0.3281,-0.4395,0,35.46,-95.32,-74.32,133.19,-72.81,144.98,0,53.176,48.163433,11.558957,591,2.23,11.792,0,0 / 22,106012,2018-11-08 18:00:40:260
0.5224,4.5237,-0.6874,-0.3058,9.6018,-1.9703,2.6102,3.1149,1.3711,2.6384,-1.1854,-0.8985,0,36.61,-94.59,-71.31,150.08,-78.27,171.18,0,58.231,48.163433,11.558957,591,2.23,11.792,0,0 / 22,108013,2018-11-08 18:00:42:261
-0.7379,4.0577,0.3575,-0.0665,9.731,-1.2138,-0.5583,4.3307,2.7588,1.1145,0.3988,-0.9903,0,30.84,-94.08,-55.85,152.54,-82.88,176.86,0,54.465,48.163433,11.558957,591,2.23,11.792,0,0 / 22,110012,2018-11-08 18:00:44:260
0.1076,7.5493,1.7964,0.7107,9.4044,2.6875,-0.7103,2.0145,-1.0468,-1.2219,-1.179,0.3198,0,24.72,-101.16,-81.69,312.44,-73.53,-14.81,0,56.498,48.163433,11.558957,591,2.23,11.792,0,0 / 22,112012,2018-11-08 18:00:46:260
0.4366,8.1404,0.3844,-0.7699,9.7625,-0.5209,-0.5336,-2.5293,6.1198,-0.7724,-0.3831,0.3406,0,27.66,-98.11,-87.59,111.72,-84.56,124.08,0,56.987,48.163433,11.558957,591,2.23,11.792,0,0 / 22,114012,2018-11-08 18:00:48:260
-4.4501,11.5591,-3.3561,-1.43,9.2515,-2.9215,0.9991,-3.8063,0.3054,-0.3685,0.8888,-0.2313,0,33.46,-95.37,-69.61,141.93,-70.63,153.92,0,55.346,48.163433,11.558957,591,2.23,11.792,0,0 / 22,116013,2018-11-08 18:00:50:261
-0.4148,10.3495,-0.053,0.428,9.7417,1.0427,0.6813,1.7555,-0.9339,2.3239,-1.3524,-0.7181,0,28.51,-98.13,-78.13,311.24,-83.4,-22.32,0,53.707,48.163433,11.558957,591,2.23,11.792,0,0 / 22,118013,2018-11-08 18:00:52:261
-1.6401,7.8908,0.9214,0.7045,9.6449,1.6278,-1.438,-0.2765,-1.3038,-0.9715,0.269,0.6236,0,19.18,-96.34,-98.47,318.48,-79.58,-23.4,0,49.858,48.163433,11.558957,591,2.23,11.792,0,0 / 22,120012,2018-11-08 18:00:54:260
-6.9776,13.5527,-5.9304,-1.6462,9.2711,-2.74,1.5708,-3.846,0.6604,-0.7216,-1.1356,0.9176,0,28.15,-97.4,-86.79,142.13,-70.98,149,0,53.549,48.163433,11.558957,591,2.23,11.792,0,0 / 22,122012,2018-11-08 18:00:56:260
0.3407,5.4113,-0.1894,0.308,9.7004,-1.4065,2.1221,2.3056,1.9501,2.9206,-0.7525,-0.7354,0,33.12,-96.83,-76.59,170.64,-81.56,-167.65,0,52.781,48.163433,11.558957,591,2.23,11.792,0,0 / 22,124013,2018-11-08 18:00:58:261
1.1689,10.22,-0.3839,1.1994,9.4235,2.435,-1.3698,1.9794,-1.3996,2.3248,0.4706,-0.5931,0,25.7,-99.88,-83.26,298.69,-73.93,-26.22,0,49.901,48.163433,11.558957,591,2.23,11.792,0,0 / 22,126012,2018-11-08 18:01:00:260
-2.8682,10.4926,4.9026,0.43,9.6784,1.5214,-1.0585,-0.6428,-0.5876,-1.0163,0.4921,0.8765,0,26.17,-99.69,-78.46,317.8,-80.72,-15.78,0,54.682,48.163433,11.558957,591,2.23,11.792,0,0 / 22,128012,2018-11-08 18:01:02:260
-1.5287,10.5363,-6.4641,-1.712,9.2071,-2.9102,2.2365,-4.4128,1.9093,-0.7239,0.2174,0.3213,0,22,-94.08,-54.51,144.79,-69.86,149.53,0,53.901,48.163433,11.558957,591,2.23,11.792,0,0 / 22,130012,2018-11-08 18:01:04:260
-1.5885,7.2605,2.0668,0.2334,9.7981,-0.3376,3.4234,3.4745,1.4177,2.9717,0.4905,-0.8977,0,17.55,-92.05,-49.1,193.51,-87.6,-145.34,0,54.61,48.163433,11.558957,591,2.23,11.792,0,0 / 22,132013,2018-11-08 18:01:06:261
-0.9196,11.1959,0.1066,0.6932,9.4021,2.7001,-0.9483,1.3868,-0.9785,0.6157,-0.3614,-0.0274,0,11.82,-103.32,-66.32,316.12,-73.49,-14.4,0,46.557,48.163433,11.558957,591,2.23,11.792,0,0 / 22,134012,2018-11-08 18:01:08:260
2.7698,-1.7425,3.888,0.1238,9.6556,1.7103,-0.8397,-0.7961,-0.8063,-1.5699,-0.7539,1.1418,0,12.2,-103.21,-64.86,339.67,-79.93,-4.14,0,58.765,48.163433,11.558957,591,2.23,11.792,0,22-Oct,136013,2018-11-08 18:01:10:261
-5.9743,11.1434,-5.5364,-1.5827,9.3876,-2.3535,1.4314,-3.395,0.7743,0.3952,-0.6201,0.7967,0,35.59,-94.25,-73.57,133.16,-73.19,146.08,0,53.734,48.163433,11.558957,591,2.23,11.792,0,0 / 22,138013,2018-11-08 18:01:12:261
0.5659,6.319,-0.0544,0.1771,9.6443,-1.7683,1.8759,2.806,1.8368,2.4264,-0.4551,-1.2874,0,26.95,-92.83,-53.56,163.46,-79.56,-174.28,0,48.579,48.163433,11.558957,591,2.23,11.792,0,0 / 22,140013,2018-11-08 18:01:14:261
-0.2784,9.9872,0.6725,0.7946,9.5674,2.0008,-1.9145,0.1845,-0.3685,-0.0738,-0.5527,0.2554,0,21.1,-100.62,-74.29,308.59,-77.32,-21.66,0,53.971,48.163303,11.557216,641,3.35,18.224,188.6,0 / 22,142013,2018-11-08 18:01:16:261
-4.137,6.8424,-2.076,-0.1908,9.8048,0.0068,-2.615,-0.5685,0.5387,-0.4011,-0.0299,-0.0157,0,23.45,-99.1,-66.27,70.23,-88.88,87.95,0,51.628,48.163303,11.557216,641,3.35,18.224,188.6,0 / 22,144014,2018-11-08 18:01:18:262
0.7823,4.8821,0.124,-0.5792,9.6768,-1.4814,2.3132,1.7891,1.3797,-0.8292,0.4726,0.5826,0,23.84,-94.96,-55.27,143.53,-80.67,158.65,0,55.868,48.163303,11.557216,641,3.35,18.224,188.6,0 / 22,146013,2018-11-08 18:01:20:261
0.2347,10.0931,-0.4669,0.9747,9.748,0.4445,-2.2269,0.4686,0.5771,-0.0953,-1.1285,0.3912,0,23.18,-100.67,-68.88,267.33,-83.73,-65.49,0,39.797,48.163303,11.557216,641,3.35,18.224,188.6,0 / 22,148014,2018-11-08 18:01:22:262
0.6911,8.2548,0.773,-0.07,9.7975,-0.4177,-0.1975,-0.4474,0.1573,-0.1579,0.58,0.9842,0,25.92,-100.03,-74.83,152.78,-87.52,170.49,0,55.769,48.163303,11.557216,641,3.35,18.224,188.6,0 / 22,150012,2018-11-08 18:01:24:260
0.5564,5.0494,-0.9899,-1.9962,9.51,-1.321,-1.2358,-1.9328,-1.6202,-0.5288,1.3959,-0.569,0,26.65,-95.2,-58.46,117.11,-75.87,123.49,0,55.302,48.163303,11.557216,641,3.35,18.224,188.6,0 / 22,152012,2018-11-08 18:01:26:260
3.0865,11.3076,-0.3499,1.3182,9.5001,2.0447,-2.609,1.3493,-1.2487,1.5429,-0.769,-1.3038,0,26.75,-93.73,-55.33,277.91,-75.64,-32.81,0,48.279,48.163303,11.557216,641,3.35,18.224,188.6,0 / 22,154013,2018-11-08 18:01:28:261
-0.4086,9.9131,1.7025,0.7669,9.6265,1.7064,-1.8658,-0.7729,-0.972,-0.8058,-0.5046,0.4786,0,19.79,-102.3,-76.75,309.76,-79,-24.2,0,46.527,48.163303,11.557216,641,3.35,18.224,188.6,0 / 22,156012,2018-11-08 18:01:30:260
-0.4749,7.3421,0.9346,-0.1838,9.7883,0.5707,0.8848,-1.2489,0.4086,-1.159,-0.2284,0.5681,0,26.36,-100.19,-76.06,358.88,-86.49,17.85,0,54.037,48.163303,11.557216,641,3.35,18.224,188.6,0 / 22,158012,2018-11-08 18:01:32:260
-1.7411,10.9143,-5.9191,-0.6307,9.7615,-0.6973,2.8421,0.9283,0.4564,-0.8094,0.7757,0.3176,0,27.96,-97.03,-63.97,120.72,-84.5,137.87,0,54.362,48.163303,11.557216,641,3.35,18.224,188.6,0 / 22,160012,2018-11-08 18:01:34:260
-0.5826,9.8293,0.0972,0.5797,9.731,1.0689,-1.45,2.7209,-0.9241,0.734,0.6837,-1.2986,0,22.91,-93.22,-52.57,297.64,-82.88,-28.47,0,52.192,48.163303,11.557216,641,3.35,18.224,188.6,0 / 22,162013,2018-11-08 18:01:36:261
0.8654,10.1481,-0.0125,0.5603,9.5544,2.1376,-1.8301,0.2629,-1.0353,-1.131,-0.6455,0.4068,0,20.59,-101.84,-72.12,315.81,-76.98,-14.69,0,45.975,48.163303,11.557216,641,3.35,18.224,188.6,0 / 22,164013,2018-11-08 18:01:38:261
-1.1942,7.7618,0.0696,-0.1108,9.7813,0.6956,1.3946,-1,-0.4885,-1.0982,-0.2392,0.4594,0,19.06,-101.14,-67.85,352.67,-85.88,9.05,0,54.906,48.163303,11.557216,641,3.35,18.224,188.6,0 / 22,166014,2018-11-08 18:01:40:262
0.363,4.9438,-2.0919,-1.7295,9.5673,-1.2827,2.8491,3.6564,2.0918,-0.1202,1.3062,-0.7153,0,23.13,-95.52,-55.72,121.25,-77.32,126.56,0,53.657,48.163303,11.557216,641,3.35,18.224,188.6,0 / 22,168012,2018-11-08 18:01:42:260
1.7717,12.4183,0.437,0.9096,9.6504,1.4875,-3.3879,2.6934,-0.7299,2.2739,-1.0607,-1.0572,0,24.27,-91.9,-52.04,287.47,-79.76,-31.45,0,57.215,48.163303,11.557216,641,3.35,18.224,188.6,0 / 22,170013,2018-11-08 18:01:44:261
0.8827,10.1122,0.6995,0.6635,9.5455,2.1479,-1.3232,0.1581,-1.194,-0.9934,-0.7002,0.4279,0,16.38,-102.67,-70.65,316.22,-76.75,-17.17,0,48.087,48.163303,11.557216,641,3.35,18.224,188.6,0 / 22,172013,2018-11-08 18:01:46:261
-0.5816,8.2329,-0.1873,-0.1586,9.8035,0.1927,-1.6096,-0.6827,0.057,-1.34,-0.5504,1.0894,0,17.46,-101.4,-65.75,25.97,-88.54,39.46,0,56.346,48.163303,11.557216,641,3.35,18.224,188.6,0 / 22,174013,2018-11-08 18:01:48:261
1.1031,4.2131,-0.9394,-1.4899,9.5252,-1.7946,0.067,-0.9785,-0.7823,0.6724,1.7224,-0.9917,0,23.14,-94.8,-54.42,133.01,-76.24,140.3,0,52.48,48.163303,11.557216,641,3.35,18.224,188.6,0 / 22,176012,2018-11-08 18:01:50:260
0.201,10.0176,-0.0099,1.1591,9.4727,2.2574,-1.4778,1.3855,-1.9137,2.7963,0.3064,-0.8297,0,26.72,-93.89,-56.79,284.28,-75,-27.18,0,46.408,48.163303,11.557216,641,3.35,18.224,188.6,0 / 22,178012,2018-11-08 18:01:52:260
-0.5294,8.731,0.5466,0.271,9.7221,1.2557,-0.4744,-0.5707,-0.4736,-0.6204,-0.4095,0.4292,0,15.84,-104.03,-72.28,329.72,-82.47,-12.18,0,54.347,48.163303,11.557216,641,3.35,18.224,188.6,0 / 22,180013,2018-11-08 18:01:54:261
-2.3571,12.3182,5.6064,-1.308,9.6197,-1.386,3.1339,5.369,-0.2511,-0.1917,0.2879,-0.6997,0,21.81,-100.1,-59.5,129.67,-78.79,136.66,0,54.911,48.163303,11.557216,641,3.35,18.224,188.6,0 / 22,182013,2018-11-08 18:01:56:261
3.117,13.0551,2.7606,-1.451,9.2734,-2.8407,1.8269,-4.0706,1.1763,-0.0047,1.2855,-0.5677,0,25.06,-92.42,-50.81,282.54,-75.32,-26.51,0,54.727,48.163303,11.557216,641,3.35,18.224,188.6,0 / 22,184013,2018-11-08 18:01:58:261
0.9249,8.5683,0.9922,0.3968,9.7229,1.216,-0.824,-0.7937,-0.7229,-0.6591,0.249,0.7155,0,13.2,-103.58,-69.05,324.58,-82.51,-18.07,0,56.766,48.163303,11.557216,641,3.35,18.224,188.6,0 / 22,186013,2018-11-08 18:02:00:261
-1.6271,9.3726,0.3336,0.4225,9.5669,-2.1135,0.792,5.9309,0.6843,-1.2094,-0.3732,-0.0782,0,5.23,-99.07,-58.52,184.81,-77.3,-168.7,0,55.573,48.163303,11.557216,641,3.35,18.224,188.6,0 / 22,188014,2018-11-08 18:02:02:262
-2.548,9.3056,-5.965,-0.5209,9.2954,-3.0813,0.7821,-3.9827,1.8589,1.1792,0.777,-0.9478,0,9.03,-94.43,-50.64,167.15,-71.42,170.4,0,57.73,48.163303,11.557216,641,3.35,18.224,188.6,0 / 22,190013,2018-11-08 18:02:04:261
0.2205,8.4138,1.4715,0.8145,9.7468,0.7114,-0.8387,1.6267,-0.0311,2.3984,0.2803,-0.6748,0,10.21,-103.97,-62.47,340.97,-77.89,-2.95,0,47.76,48.163303,11.557216,641,3.35,18.224,188.6,0 / 22,192013,2018-11-08 18:02:06:261
-2.0046,8.5717,0.3941,-1.2867,9.7078,0.5232,-1.2273,-1.5664,-0.3834,-0.3163,-0.7077,0.7736,0,25.6,-100.92,-80,58.53,-81.86,67.87,0,61.337,48.163303,11.557216,641,3.35,18.224,188.6,0 / 22,194013,2018-11-08 18:02:08:261
1.483,13.4403,5.4329,-1.6494,9.6508,-0.5586,1.4333,-1.0826,1.1529,-0.7692,1.1153,0.769,0,26.88,-102.21,-69.25,101.25,-79.77,108.71,0,57.819,48.163303,11.557216,641,3.35,18.224,188.6,0 / 22,196012,2018-11-08 18:02:10:260
-2.3889,9.1005,-0.9256,-1.063,9.7356,-0.5084,-3.9206,4.1156,-2.2819,1.037,-0.1139,-1.5783,0,33.79,-97.32,-66.62,97.51,-83.1,115.56,0,62.122,48.163303,11.557216,641,3.35,18.224,188.6,0 / 22,198013,2018-11-08 18:02:12:261
0.23,13.3838,1.4992,-0.5997,9.4506,-2.5491,0.3597,-2.1124,2.27,0.7496,0.1943,-1.7166,0,30.91,-95.22,-58.63,258.83,-74.41,-50.93,0,53.578,48.163303,11.557216,641,3.35,18.224,188.6,0 / 22,200013,2018-11-08 18:02:14:261
1.2286,7.9933,0.5645,1.092,9.6882,1.0571,0.5937,-0.4265,-1.0621,-0.649,-0.3631,0.4489,0,12.08,-104.83,-71.01,292.01,-81.08,-45.93,0,51.387,48.163303,11.557216,641,3.35,18.224,188.6,0 / 22,202012,2018-11-08 18:02:16:260
-0.7221,7.7449,1.2669,-0.1478,9.7441,-1.0959,4.6107,1.1771,-1.6455,-0.5928,1.0679,0.8879,0,18.38,-101.95,-64.78,160.06,-83.53,172.32,0,55.856,48.163303,11.557216,641,3.35,18.224,188.6,0 / 22,204013,2018-11-08 18:02:18:261
2.9414,3.5807,1.9129,-0.3465,9.5344,-2.2685,-0.214,-0.0899,-2.3776,-0.4684,1.4037,-0.1037,0,21.1,-96.54,-54.83,158.15,-76.47,171.32,0,56.975,48.163303,11.557216,641,3.35,18.224,188.6,0 / 22,206013,2018-11-08 18:02:20:261
2.4734,10.9107,-1.1075,-0.409,9.5981,-1.9698,1.2798,-2.8089,-0.1507,-0.6912,1.3655,-0.0257,0,21.44,-95.34,-53.18,254.59,-75.32,-59.45,0,50.425,48.163303,11.557216,641,3.35,18.224,188.6,0 / 22,208013,2018-11-08 18:02:22:261
3.3154,10.6857,-0.2791,2.495,9.1666,2.4329,-1.3403,2.1936,-0.9128,0.1149,-0.6014,0.0851,0,25.54,-96.3,-58.87,257.84,-69.18,-45.72,0,54.749,48.163303,11.557216,641,3.35,18.224,188.6,0 / 22,210012,2018-11-08 18:02:24:260
0.6516,10.4717,0.5544,2.0825,9.3237,2.214,-1.6312,0.0851,-1.546,0.3296,-0.3468,-8.00E-04,0,13.8,-103.75,-72,278.13,-71.94,-43.25,0,49.489,48.163303,11.557216,641,3.35,18.224,188.6,0 / 22,212013,2018-11-08 18:02:26:261
0.1946,9.0913,2.004,1.4772,9.5409,1.7204,-1.1827,-0.3285,-1.0787,-0.6013,0.8959,0.7923,0,10.33,-103.52,-67.66,290.89,-76.63,-40.65,0,54.923,48.163303,11.557216,641,3.35,18.224,188.6,0 / 22,214012,2018-11-08 18:02:28:260
0.8291,11.4038,-0.9998,1.2123,9.6833,0.9667,0.1883,-1.0593,0.4125,-0.96,0.6353,0.8797,0,18.05,-101.46,-66.99,158.29,-78.34,167.46,0,55.747,48.163303,11.557216,641,3.35,18.224,188.6,0 / 22,216012,2018-11-08 18:02:30:260
-4.2897,13.2728,-5.5822,-0.777,9.4168,-2.6251,0.9958,-4.2765,0.8345,-0.8244,0.8592,0.3226,0,26.64,-97.01,-58.96,150.07,-73.79,163.51,0,57.65,48.163303,11.557216,641,3.35,18.224,188.6,0 / 22,218013,2018-11-08 18:02:32:261
-0.8082,4.2286,-1.4155,-0.573,9.5821,-2.0063,0.5103,-0.3396,3.2201,-0.6866,1.1871,0.3449,0,25.78,-94.79,-54.21,148.09,-77.72,164.06,0,54.79,48.163303,11.557216,641,3.35,18.224,188.6,0 / 22,220013,2018-11-08 18:02:34:261
0.7862,5.0697,-0.9745,1.12,9.5803,-1.7701,3.0267,2.6272,1.0087,0.7375,-0.9509,-0.2757,0,30.16,-95.92,-60.85,184.8,-77.67,-147.68,0,58.639,48.163303,11.557216,641,3.35,18.224,188.6,0 / 22,222013,2018-11-08 18:02:36:261
-0.2428,8.8797,0.1838,1.9465,9.5441,1.1366,-1.7922,2.9921,-0.8852,1.0628,0.005,-0.4229,0,16.14,-102.81,-67.18,276.44,-81.13,-56.65,0,50.968,48.163303,11.557216,641,3.35,18.224,188.6,0 / 22,224013,2018-11-08 18:02:38:261
0.5184,8.3454,-0.6885,0.4464,9.7948,0.1836,-2.724,4.9893,5.4999,-0.6512,0.4533,0.6809,0,12.59,-102.77,-71.41,277.98,-87.18,-67.64,0,57.904,48.163303,11.557216,641,3.35,18.224,188.6,0 / 22,226013,2018-11-08 18:02:40:261
1.7947,7.1552,-0.4884,-0.5034,9.6812,-1.4804,6.7122,-4.6966,0.2023,-0.7645,0.4765,0.8563,0,20.06,-99.94,-67.88,150.83,-80.82,161.22,0,58.196,48.163303,11.557216,641,3.35,18.224,188.6,0 / 22,228013,2018-11-08 18:02:42:261
3.0441,0.5435,2.8904,-0.3942,9.6107,-1.9104,-2.8557,2.7169,-2.8616,-0.1247,1.7608,-0.4109,0,22.92,-96.72,-56.86,153.88,-78.53,168.34,0,57.777,48.163303,11.557216,641,3.35,18.224,188.6,0 / 22,230012,2018-11-08 18:02:44:260
3.1789,10.4907,-0.493,-0.9275,9.4808,-2.3289,1.9503,-4.499,0.6701,-0.1398,1.3234,-0.4959,0,27.61,-93.09,-52.79,258.02,-74.1,-49.02,0,54.857,48.163303,11.557216,641,3.35,18.224,188.6,22-Dec,232012,2018-11-08 18:02:46:260
1.2702,9.9514,0.7698,1.7678,9.4557,1.9068,-1.1674,0.1877,-1.1857,-0.4611,-0.3519,0.5633,0,18.15,-101.79,-68.17,278.84,-74.62,-42.83,0,56.108,48.163303,11.557216,641,3.35,18.224,188.6,0 / 22,234012,2018-11-08 18:02:48:260
0.5489,8.1092,0.4366,0.4832,9.7802,0.5335,-2.8494,0.8491,0.8269,-0.7109,-0.4119,0.6078,0,17.6,-102.38,-71.59,298.64,-85.79,-42.17,0,57.301,48.163303,11.557216,641,3.35,18.224,188.6,0 / 22,236012,2018-11-08 18:02:50:260
4.6038,-3.5616,3.8334,-1.1713,9.5884,-1.6915,-4.6543,-1.4035,-1.8617,-0.8191,1.1311,-0.2339,0,22.3,-97.03,-55.91,136.75,-77.89,145.3,0,55.574,48.163303,11.557216,641,3.35,18.224,188.6,0 / 22,238012,2018-11-08 18:02:52:260
3.7605,8.6582,-0.9729,-1.3026,9.5067,-2.0238,2.3633,-4.0603,-0.1893,-0.4721,1.3472,-0.9186,0,29.46,-93,-55.73,248.5,-74.79,-63.04,0,54.466,48.16245,11.556999,685,0.9,28.944,219.4,0 / 22,240014,2018-11-08 18:02:54:262
3.9722,11.6663,-3.2026,2.5564,9.2692,1.928,-3.4683,3.8281,-1.2674,-0.0495,-0.7738,0.3876,0,31.1,-94.55,-58.86,252.42,-70.94,-52.98,0,53.064,48.16245,11.556999,685,0.9,28.944,219.4,0 / 22,242012,2018-11-08 18:02:56:260
4.1389,11.4555,-1.5272,2.2903,9.168,2.6216,-1.3642,2.3377,-1.7701,-0.0468,-0.5625,0.1959,0,21.34,-99.33,-60.96,264.78,-69.21,-41.14,0,49.166,48.16245,11.556999,685,0.9,28.944,219.4,0 / 22,244013,2018-11-08 18:02:58:261
2.6678,5.6125,0.6417,1.6348,9.4407,2.0907,-0.7641,-0.0152,-0.4609,-0.8648,0.3643,0.696,0,19.22,-103.22,-78.83,288.08,-74.3,-38.02,0,55.927,48.16245,11.556999,685,0.9,28.944,219.4,0 / 22,246012,2018-11-08 18:03:00:260
2.5963,5.5739,-0.1492,1.2119,9.6696,1.0953,-0.3809,-0.5399,-0.5946,-1.3871,-1.302,1.1432,0,22.5,-102.44,-67.39,150.68,-79.07,162.36,0,51.843,48.16245,11.556999,685,0.9,28.944,219.4,0 / 22,248012,2018-11-08 18:03:02:260
-2.8611,10.982,-4.9653,-1.1953,9.4459,-2.3487,1.7789,-3.617,1.3382,-0.4811,0.2686,-0.164,0,29.18,-94.33,-60.06,140.38,-74.41,153.03,0,54.208,48.16245,11.556999,685,0.9,28.944,219.4,0 / 22,250012,2018-11-08 18:03:04:260
1.631,2.8147,-1.0337,-0.7359,9.5698,-2.0119,0.0636,0.5979,2.6201,0.828,0.3211,-1.9893,0,26.77,-92.69,-55.94,144.53,-77.38,159.91,0,58.427,48.16245,11.556999,685,0.9,28.944,219.4,0 / 22,252013,2018-11-08 18:03:06:261
-0.3982,9.1306,1.2852,1.0461,9.6993,-0.9998,5.3484,3.4891,0.6803,1.7181,-1.3413,-1.3631,0,24.7,-95.44,-60.79,200.03,-81.51,-133.7,0,48.494,48.16245,11.556999,685,0.9,28.944,219.4,0 / 22,254012,2018-11-08 18:03:08:260
-0.6052,7.9392,0.9581,1.9895,9.3915,2.0028,-2.914,3.6731,-0.4137,-0.898,-0.0783,0.5896,0,10.81,-102.52,-70.87,298.55,-82.87,-43.4,0,55.868,48.16245,11.556999,685,0.9,28.944,219.4,0 / 22,256013,2018-11-08 18:03:10:261
-1.3007,7.9814,0.0409,0.9404,9.7551,0.3515,1.8677,-2.1131,0.1958,0.0442,-0.5675,0.2448,0,9.84,-101.21,-70.05,273.91,-84.12,-69.5,0,59.964,48.16245,11.556999,685,0.9,28.944,219.4,0 / 22,258012,2018-11-08 18:03:12:260
1.0177,9.0953,1.9402,0.9379,9.6319,1.5866,0.2387,-0.9537,-1.2914,-1.0352,0.9342,0.718,0,10.2,-101.92,-74.77,310,-79.17,-30.59,0,59.425,48.16245,11.556999,685,0.9,28.944,219.4,0 / 22,260013,2018-11-08 18:03:14:261
2.908,6.9196,-2.3584,1.3303,9.5881,1.5715,-1.9917,-0.1115,-1.4875,-1.0726,-0.4165,0.6048,0,9.13,-100.77,-70.94,296.32,-77.88,-40.25,0,53.163,48.16245,11.556999,685,0.9,28.944,219.4,0 / 22,262013,2018-11-08 18:03:16:261
9.3872,19.0467,-8.432,1.0267,9.6635,1.3162,0.1529,-0.6229,-0.9617,-0.4711,-0.6646,0.5631,0,16.09,-99.08,-62.37,151.09,-78.99,157.77,0,58.16,48.16245,11.556999,685,0.9,28.944,219.4,0 / 22,264012,2018-11-08 18:03:18:260
-2.6015,7.1499,-5.6036,-0.8047,9.4881,-2.3451,0.9123,-4.7706,-0.9373,-1.2058,-1.5425,0.7716,0,26.43,-92.11,-62.12,148.1,-75.36,161.06,0,56.883,48.16245,11.556999,685,0.9,28.944,219.4,0 / 22,266012,2018-11-08 18:03:20:260
-5.8009,8.748,-2.9667,-1.162,9.3797,-2.6156,2.1592,-4.9681,0.1351,0.3744,1.6934,-1.1813,0,29.09,-93.17,-63.45,143.72,-73.03,156.05,0,56.972,48.16245,11.556999,685,0.9,28.944,219.4,0 / 22,268013,2018-11-08 18:03:22:261
3.8503,11.2352,-1.1212,-1.3714,9.403,-2.4236,2.6668,-4.5585,0.1909,-1.3173,0.1458,0.3625,0,25.16,-94.84,-57.38,141.54,-73.5,150.5,0,59.72,48.16245,11.556999,685,0.9,28.944,219.4,0 / 22,270013,2018-11-08 18:03:24:261
5.0323,13.7091,-0.08,-1.3445,9.3815,-2.5199,3.2394,-4.4411,0.7234,2.7695,-1.0558,-1.3497,0,28.02,-88.39,-54.49,258.86,-73.04,-48.62,0,53.002,48.16245,11.556999,685,0.9,28.944,219.4,0 / 22,272013,2018-11-08 18:03:26:261
-0.6894,11.5418,1.8633,2.0831,9.2302,2.5757,-1.2718,1.2199,-0.273,2.855,-1.2322,-1.1758,0,24.56,-95.35,-65.25,270.65,-70.26,-38.97,0,54.8,48.16245,11.556999,685,0.9,28.944,219.4,0 / 22,274012,2018-11-08 18:03:28:260
-1.6356,11.8284,1.0313,2.0257,9.3004,2.3599,-1.1287,1.1766,-0.5252,-0.9993,-0.0371,0.6917,0,16.91,-99.33,-73.35,150.76,-81.08,158.4,0,47.426,48.16245,11.556999,685,0.9,28.944,219.4,0 / 22,276013,2018-11-08 18:03:30:261
3.0616,-1.3911,2.8138,0.6587,9.682,1.4128,-0.3298,-0.62,-1.2905,-0.7747,-0.3324,0.2372,0,18.23,-96.71,-66.56,141.7,-78.17,147.02,0,57.969,48.16245,11.556999,685,0.9,28.944,219.4,0 / 22,278013,2018-11-08 18:03:32:261
2.623,27.2335,4.3462,0.531,9.7078,1.2832,1.1257,-1.2881,-2.308,-0.5469,-0.7476,0.415,0,19.91,-99.14,-59.32,119.62,-78.72,122.9,0,61.719,48.16245,11.556999,685,0.9,28.944,219.4,0 / 22,280012,2018-11-08 18:03:34:260
-4.769,3.4085,-4.5508,-1.1139,9.4421,-2.4034,1.5298,-4.5852,-0.2904,-0.4461,-0.305,0.9898,0,25.26,-94.17,-49.18,253.52,-75.38,-54.73,0,55.679,48.16245,11.556999,685,0.9,28.944,219.4,0 / 22,282013,2018-11-08 18:03:36:261
-3.8941,15.277,-3.4985,-1.4181,9.2587,-2.9044,2.6983,-5.3872,1.0505,0.4662,1.8015,-1.4177,0,27.34,-90.74,-53.89,258.1,-72.69,-48.57,0,56.38,48.16245,11.556999,685,0.9,28.944,219.4,0 / 22,284012,2018-11-08 18:03:38:260
5.0507,11.8208,-2.3293,-1.3276,9.2439,-2.9932,2.9418,-5.4705,2.5138,-0.803,1.0127,-0.2546,0,18.88,-97.51,-63.03,274.9,-72.49,-40.17,0,52.503,48.16245,11.556999,685,0.9,28.944,219.4,0 / 22,286014,2018-11-08 18:03:40:262
0.0955,12.318,1.609,-0.7037,9.4392,-2.5645,-1.0202,0.7814,2.7395,0.0902,-0.3885,0.1987,0,7.96,-99.58,-74.46,292.72,-73.31,-38.56,0,56.851,48.16245,11.556999,685,0.9,28.944,219.4,0 / 22,288013,2018-11-08 18:03:42:261
0.4099,9.2075,1.7442,1.1779,9.5869,1.6952,-1.6612,-0.0575,-1.8197,0.2262,-0.5152,0.0905,0,9.42,-101.59,-68.65,147.2,-75.96,144.21,0,47.824,48.16245,11.556999,685,0.9,28.944,219.4,0 / 22,290013,2018-11-08 18:03:44:261
-1.637,8.3421,-0.4144,0.7344,9.7627,0.5668,0.3506,-2.4579,-0.3582,-1.458,-0.5807,1.3675,0,18.7,-97.7,-58.14,151.2,-76,159.2,0,56.492,48.16245,11.556999,685,0.9,28.944,219.4,0 / 22,292013,2018-11-08 18:03:46:261
-0.15,3.8931,-1.4112,-0.8793,9.6418,-1.5597,5.054,5.7859,-0.6086,-1.2547,-1.8731,0.9333,0,19.75,-93.83,-51.78,150.39,-74,158.97,0,55.623,48.16245,11.556999,685,0.9,28.944,219.4,0 / 22,294013,2018-11-08 18:03:48:261
1.4165,5.6963,0.0527,-0.9514,9.6001,-1.7618,-2.4226,2.7,-3.5036,1.0136,0.3238,-1.7873,0,22.85,-96.08,-53.4,202.7,-82.26,-129.07,0,55.863,48.16245,11.556999,685,0.9,28.944,219.4,0 / 22,296013,2018-11-08 18:03:50:261
1.4146,10.5991,-0.087,2.017,9.3088,2.3341,-1.5996,2.0567,-0.5542,2.1057,-1.5001,-1.1899,0,11.18,-104.48,-66.53,215.04,-88.76,-134.55,0,48.073,48.16245,11.556999,685,0.9,28.944,219.4,0 / 22,298013,2018-11-08 18:03:52:261
0.8946,10.3304,0.7049,1.4071,9.4906,2.0297,-1.9924,-0.315,-0.9579,-0.8735,-0.7553,0.4505,0,18.73,-102.27,-63.95,141.06,-77.79,146.41,0,55.929,48.16245,11.556999,685,0.9,28.944,219.4,0 / 22,300012,2018-11-08 18:03:54:260
0.9673,17.753,-1.2444,0.4608,9.7579,0.8616,-0.097,-0.3621,-0.0936,-0.9146,-0.8051,0.6197,0,29.53,-93.75,-58.19,121.08,-79.49,135.7,0,56.704,48.16245,11.556999,685,0.9,28.944,219.4,0 / 22,302012,2018-11-08 18:03:56:260
-0.8318,7.4242,-1.9547,-0.5406,9.7509,-0.8936,1.2124,-5.5327,4.2269,-1.2411,1.0543,0.0512,0,26.84,-90.69,-51.98,143.1,-72.19,155.01,0,57.827,48.16245,11.556999,685,0.9,28.944,219.4,0 / 22,304013,2018-11-08 18:03:58:261
0.894,3.468,0.2486,-0.4256,9.5945,-1.9837,0.7021,1.9912,1.8396,-1.0827,0.3411,0.43,0,24.23,-95.6,-55.54,278.21,-73.09,-29.95,0,56.295,48.16245,11.556999,685,0.9,28.944,219.4,0 / 22,306012,2018-11-08 18:04:00:260
-0.7165,8.1028,0.621,1.3142,9.7169,-0.1595,0.2443,2.743,0.2887,0.8882,-0.8635,0.2034,0,16.83,-102.29,-68.24,311.01,-82.1,-25.96,0,55.567,48.16245,11.556999,685,0.9,28.944,219.4,0 / 22,308012,2018-11-08 18:04:02:260
0.1162,7.9877,-0.3647,1.4847,9.4817,2.016,-1.4757,0.5752,-0.9085,0.231,-0.4862,0.1642,0,17.61,-98.96,-60.99,125.93,-86.9,138.49,0,50.873,48.16245,11.556999,685,0.9,28.944,219.4,0 / 22,310012,2018-11-08 18:04:04:260
0.4867,17.8889,0.7017,-0.0841,9.8033,0.2432,0.9288,-0.3463,0.7673,-0.2824,-0.8802,-0.486,0,25.48,-94.51,-60.23,114.16,-83.24,127.84,0,51.777,48.16245,11.556999,685,0.9,28.944,219.4,0 / 22,312013,2018-11-08 18:04:06:261
0.6243,9.3246,0.8302,2.089,9.3327,2.1696,-1.9538,0.4969,-1.1518,0.7623,0.0431,0.001,0,10.2,-101.53,-66.06,280.37,-81.15,-57.36,0,51.843,48.16245,11.556999,685,0.9,28.944,219.4,0 / 22,314012,2018-11-08 18:04:08:260
2.0125,7.7609,0.3542,-0.2931,9.7726,-0.7618,1.4788,-2.9706,4.0573,-0.5681,-0.9629,0.5025,0,20.35,-93.28,-54.14,151.84,-74.78,161.38,0,53.625,48.16245,11.556999,685,0.9,28.944,219.4,0 / 22,316013,2018-11-08 18:04:10:261
-0.3495,8.5318,0.4976,1.3984,9.6858,0.632,0.7267,0.0916,0.4684,1.1239,-0.7698,0.025,0,20.85,-99.09,-71.87,294.19,-80.57,-37.74,0,50.652,48.16245,11.556999,685,0.9,28.944,219.4,0 / 22,318013,2018-11-08 18:04:12:261
0.5793,8.7558,0.0341,1.4024,9.7054,0.0944,-0.4487,0.0576,0.1354,-0.198,0.1224,0.1533,0,23.23,-97.42,-72.31,219.34,-82.93,-117.39,0,46.182,48.16245,11.556999,685,0.9,28.944,219.4,0 / 22,320013,2018-11-08 18:04:14:261
-1.5517,7.8539,-3.0007,-1.6216,9.2824,-2.7161,-0.2033,0.6035,0.2081,-0.0067,0.3018,0.4357,0,33.67,-91.53,-71.79,145.25,-76.18,162.17,0,50.691,48.16245,11.556999,685,0.9,28.944,219.4,0 / 22,322013,2018-11-08 18:04:16:261
0.4857,8.758,0.7538,0.3976,9.7986,0.0103,-0.928,-0.2811,-0.2967,-0.9572,-0.1888,0.2103,0,27.65,-97.7,-77.94,153.57,-78.17,167.59,0,53.878,48.16245,11.556999,685,0.9,28.944,219.4,0 / 22,324013,2018-11-08 18:04:18:261
0.3681,8.74,1.7943,1.0857,9.702,0.9293,0.3939,-0.0764,0.4421,0.1599,-0.431,-0.025,0,24.58,-95.55,-87.66,303.92,-80.19,-31.21,0,50.947,48.16245,11.556999,685,0.9,28.944,219.4,0 / 22,326013,2018-11-08 18:04:20:261
0.8633,8.6906,0.7963,1.5603,9.6401,0.8965,-0.0842,-0.0417,0.1618,-0.1382,0.3253,0.1135,0,21.29,-95.14,-92.99,266.1,-81.96,-73.14,0,55.482,48.16245,11.556999,685,0.9,28.944,219.4,22-Jul,328012,2018-11-08 18:04:22:260
1.5137,8.8089,1.1659,1.4084,9.6091,1.3609,0.1438,0.0153,0.1436,0.2186,-0.0759,-0.1298,0,22.12,-94.37,-93.1,283.67,-78.82,-51.89,0,57.467,48.16245,11.556999,685,0.9,28.944,219.4,0 / 22,330012,2018-11-08 18:04:24:260
1.0125,8.688,1.1869,1.1692,9.6377,1.3849,-0.0353,-0.0164,0.0829,0.0147,0.1507,0.0112,0,19.32,-93.2,-95.12,293.83,-79.15,-44.82,0,55.65,48.16245,11.556999,685,0.9,28.944,219.4,0 / 22,332013,2018-11-08 18:04:26:261
0.7613,8.7448,0.9049,0.8921,9.7095,1.0494,-0.0606,0.0179,0.0295,-0.0148,-0.0194,0.0125,0,22.65,-93.69,-91.56,296.11,-81.99,-42.45,0,50.5,48.16245,11.556999,685,0.9,28.944,219.4,0 / 22,334012,2018-11-08 18:04:28:260
0.7356,8.5912,0.6742,0.8594,9.747,0.6535,-0.2557,0.1246,0.0804,0.2635,-0.0955,-0.0173,0,22.85,-94.24,-91.09,296.67,-83.51,-43.16,0,49.75,48.16245,11.556999,685,0.9,28.944,219.4,0 / 22,336012,2018-11-08 18:04:30:260
-0.2299,8.4908,0.8448,0.0866,9.8063,-0.0135,-1.071,-0.0211,0.2244,-0.1872,0.7329,0.0664,0,25.37,-94.6,-87.42,203.35,-86.09,-139.04,0,39.008,48.16245,11.556999,685,0.9,28.944,219.4,0 / 22,338012,2018-11-08 18:04:32:260
0.8667,8.7561,0.2677,0.8814,9.7571,0.4386,-0.0523,-0.1783,-0.0802,-0.0886,-0.116,0.0565,0,24.04,-95.75,-86.69,256.08,-85.28,-83.66,0,43.749,48.16245,11.556999,685,0.9,28.944,219.4,0 / 22,340013,2018-11-08 18:04:34:261
1.1865,8.7011,1.0931,1.3075,9.6498,1.1586,-0.0508,-0.0358,0.0528,0.0296,-0.0726,-0.0011,0,23.39,-95.24,-90.18,289.85,-79.71,-45.47,0,44.487,48.16245,11.556999,685,0.9,28.944,219.4,0 / 22,342012,2018-11-08 18:04:36:260
-0.0923,6.099,-2.3133,-1.0141,9.7196,-0.8189,3.8922,8.2133,-0.4625,0.1558,-0.3674,0.7,0,22.43,-92.59,-56.62,140.73,-82.21,154.56,0,56.831,48.16245,11.556999,685,0.9,28.944,219.4,0 / 22,344012,2018-11-08 18:04:38:260
0.8238,3.6837,-1.833,-0.6137,9.5779,-2.0146,0.0168,0.0696,2.5403,-0.3812,1.7819,-0.8948,0,22.63,-100.71,-57.57,278.05,-73.82,-32.31,0,56.918,48.16245,11.556999,685,0.9,28.944,219.4,0 / 22,346013,2018-11-08 18:04:40:261
0.7585,4.8075,-0.0684,0.8458,9.6783,-1.3363,4.55,3.3282,1.9473,0.0234,1.5514,-1.1236,0,27.25,-91.73,-51.23,183.56,-80.72,-147.67,0,50.508,48.16245,11.556999,685,0.9,28.944,219.4,0 / 22,348013,2018-11-08 18:04:42:261
-0.0394,7.7321,0.3622,2.0094,9.3603,2.1255,-2.2334,2.5982,-1.4945,-0.4981,-0.6041,0.4863,0,15.82,-103.09,-58.86,269.68,-72.65,-43.39,0,53.596,48.16245,11.556999,685,0.9,28.944,219.4,0 / 22,350012,2018-11-08 18:04:44:260
-1.0876,7.6704,-0.3733,1.7294,9.3209,2.5102,-1.4103,2.6502,-1.2836,-0.4289,-0.4624,0.4131,0,13.05,-118.69,-69.67,282.08,-71.89,-34.56,0,57.339,48.16245,11.556999,685,0.9,28.944,219.4,0 / 22,352014,2018-11-08 18:04:46:262
-0.5948,6.2201,4.8465,-1.2755,9.4709,-2.2012,-0.1188,-1.7172,-2.523,-0.5884,-1.0414,0.8967,0,32.16,-114.9,-50.24,136.77,-74.96,149.91,0,58.158,48.16245,11.556999,685,0.9,28.944,219.4,0 / 22,354012,2018-11-08 18:04:48:260
-2.9956,21.1286,-4.5206,-0.0577,9.4679,-2.5546,0.3688,-2.6956,-1.4259,-0.1301,0.2623,-0.1012,0,6.87,-97.16,-39.82,172.93,-74.9,178.71,0,55.542,48.16245,11.556999,685,0.9,28.944,219.4,0 / 22,356013,2018-11-08 18:04:50:261
0.8317,9.7585,1.0137,-0.7197,9.5555,-2.0845,0.5544,-3.0636,-1.3971,0.7271,1.5142,-1.0266,0,3.76,-97.64,-39.89,163.71,-77,160.95,0,55.687,48.16245,11.556999,685,0.9,28.944,219.4,0 / 22,358013,2018-11-08 18:04:52:261
-1.7559,9.5056,4.3286,-1.2563,8.7165,-4.3145,-1.6676,-1.5938,-1.3033,0.0398,1.6879,-0.6708,0,-24.11,-71.89,-25.88,194.47,-62.73,163.76,0,57.081,48.16245,11.556999,685,0.9,28.944,219.4,0 / 22,360013,2018-11-08 18:04:54:261
-0.4798,11.9084,1.0351,1.4568,9.2902,2.7821,-0.7686,1.3617,-0.6804,0.2612,-0.4505,-0.022,0,-14.02,-85.71,-36.2,334.04,-71.32,-27.64,0,47.309,48.16245,11.556999,685,0.9,28.944,219.4,0 / 22,362013,2018-11-08 18:04:56:261
-0.5184,10.4894,-0.4637,1.4194,9.4509,2.1989,-1.308,0.7526,-1.0278,-0.1009,-0.3124,0.2809,0,-28.23,-89.89,-51.33,352.62,-74.52,-32.84,0,52.791,48.16245,11.556999,685,0.9,28.944,219.4,0 / 22,364013,2018-11-08 18:04:58:261
-0.3323,5.0743,5.1429,1.0373,9.6054,1.6826,-1.4019,-0.4081,-1.2447,-0.9502,0.4844,0.6333,0,-28.89,-93.18,-56.36,353.74,-78.37,-31.65,0,52.925,48.16245,11.556999,685,0.9,28.944,219.4,0 / 22,366012,2018-11-08 18:05:00:260
2.4908,12.5262,3.5761,0.6013,9.7276,1.0875,2.0175,-1.2777,-0.9055,-0.7906,0.961,0.549,0,-26.42,-95.37,-53.35,356.43,-82.72,-28.94,0,56.641,48.16245,11.556999,685,0.9,28.944,219.4,0 / 22,368013,2018-11-08 18:05:02:261
-2.7426,11.5618,-6.5743,-1.24,9.3828,-2.5684,3.0374,-4.8196,1.9693,0.2018,2.0347,-0.9161,0,-25.16,-94.99,-53.91,179.35,-73.09,154.23,0,55.204,48.16245,11.556999,685,0.9,28.944,219.4,0 / 22,370013,2018-11-08 18:05:04:261
-0.9328,8.3055,-3.1001,-1.3758,9.4235,-2.3398,1.8631,-3.4946,2.0203,-0.9872,0.902,0.2699,0,-11.8,-99.75,-56.63,167.06,-73.93,149.54,0,56.123,48.16245,11.556999,685,0.9,28.944,219.4,0 / 22,372012,2018-11-08 18:05:06:260
-1.7131,11.0176,0.933,-0.8173,9.541,-2.1147,0.0459,-1.2463,3.2114,2.1103,-0.1275,-0.5963,0,-7.59,-96.29,-50.98,171.29,-76.63,158.87,0,55.362,48.16245,11.556999,685,0.9,28.944,219.4,0 / 22,374014,2018-11-08 18:05:08:262
1.0273,9.9234,1.2576,0.3922,9.6875,-1.473,2.3492,4.716,0.9509,3.1671,-0.07,-0.9441,0,3.44,-105.92,-64.49,189.83,-81.06,-165.09,0,50.259,48.16245,11.556999,685,0.9,28.944,219.4,0 / 22,376012,2018-11-08 18:05:10:260
0.0848,8.9088,1.1732,0.8725,9.7195,0.9694,-0.7088,-0.5197,-0.6182,-1.1945,-0.3388,0.6352,0,-12.6,-107.19,-77.82,320.65,-82.36,-41.99,0,59.366,48.16245,11.556999,685,0.9,28.944,219.4,0 / 22,378012,2018-11-08 18:05:12:260
-0.3276,7.8608,0.6702,0.744,9.7569,0.6484,1.5379,-1.5947,-0.6973,-0.9763,-0.0941,0.5825,0,-13.41,-106.12,-74.95,315.06,-84.22,-48.93,0,52.276,48.16245,11.556999,685,0.9,28.944,219.4,0 / 22,380013,2018-11-08 18:05:14:261
-6.1728,9.7316,-0.0147,0.3341,9.7847,0.5641,-3.3296,0.4417,-0.3325,-0.8981,-0.5103,0.1032,0,-8.07,-107.64,-68.99,333.24,-86.17,-30.64,0,57.675,48.16245,11.556999,685,0.9,28.944,219.4,0 / 22,382012,2018-11-08 18:05:16:260
-3.2359,11.7696,-1.9475,0.1489,9.8039,0.1777,-3.0902,1.9904,1.5454,-1.4882,-2.0837,1.3654,0,-10.09,-105.42,-61.32,328.13,-88.65,-39.95,0,58.494,48.16245,11.556999,685,0.9,28.944,219.4,0 / 22,384013,2018-11-08 18:05:18:261
-0.7649,7.7119,-1.9636,-1.1906,9.3994,-2.5307,2.0968,-3.1913,1.9784,0.3214,1.7673,-1.5642,0,-0.17,-103.54,-57.52,162.84,-73.43,154.81,0,62.461,48.16245,11.556999,685,0.9,28.944,219.4,0 / 22,386012,2018-11-08 18:05:20:260
2.1187,3.2848,1.0605,-0.1237,9.6677,-1.6405,0.6605,2.8544,0.4464,0.6187,2.171,-1.2659,0,-2.34,-99.67,-53.69,178.31,-80.34,175.69,0,61.405,48.16245,11.556999,685,0.9,28.944,219.4,0 / 22,388013,2018-11-08 18:05:22:261
-0.5737,8.5958,0.9467,1.5241,9.6166,1.1701,-0.9031,2.6455,-0.1982,-0.6645,-0.2964,0.4486,0,-5.9,-96.36,-53.74,294.8,-78.7,-52.49,0,59.838,48.16245,11.556999,685,0.9,28.944,219.4,0 / 22,390013,2018-11-08 18:05:24:261
2.7586,7.4023,1.261,1.5551,9.4332,2.1831,-1.5357,0.5317,-1.042,-0.9018,0.0851,0.7073,0,-20.08,-96.82,-64.86,328.94,-74.14,-35.46,0,59.981,48.16245,11.556999,685,0.9,28.944,219.4,0 / 22,392014,2018-11-08 18:05:26:262
-0.9857,7.9539,-3.1018,-0.8541,9.6762,-1.3463,-0.1604,-0.3035,-0.9928,-1.4242,0.1462,0.8296,0,-21.18,-95.62,-51.61,171.78,-80.64,147.61,0,54.977,48.16245,11.556999,685,0.9,28.944,219.4,0 / 22,394013,2018-11-08 18:05:28:261
1.3314,8.6186,-0.94,0.8621,9.763,-0.3339,1.8046,1.1297,-0.4645,0.9027,-0.8342,-0.2448,0,9.43,-87.43,-33.11,224.08,-84.59,-111.17,0,50.893,48.16245,11.556999,685,0.9,28.944,219.4,0 / 22,396013,2018-11-08 18:05:30:261
0.5639,8.7289,0.4354,0.9902,9.7251,0.7826,-0.144,0.0217,0.1428,-0.0323,0.2155,0.0481,0,-5.78,-96,-35.13,300.23,-82.61,-51.68,0,47.575,48.16245,11.556999,685,0.9,28.944,219.4,0 / 22,398012,2018-11-08 18:05:32:260
1.8408,8.8757,0.9756,1.476,9.6777,0.5776,0.1132,0.0174,-0.0436,0.1284,-0.3256,0.0475,0,-5.91,-95,-35.37,275.16,-80.7,-68.63,0,52.421,48.16245,11.556999,685,0.9,28.944,219.4,0 / 22,400012,2018-11-08 18:05:34:260
0.264,8.8001,-0.1116,0.7805,9.7666,-0.4173,-0.7179,0.0185,0.1803,0.0461,0.566,0.0959,0,11.05,-90.07,-29.15,213,-84.82,-118.13,0,55.486,48.16245,11.556999,685,0.9,28.944,219.4,0 / 22,402012,2018-11-08 18:05:36:260
0.7205,8.8585,0.4969,0.9441,9.7484,0.498,-0.137,0.0341,-0.0119,-0.0725,-0.0238,0.048,0,-17.88,-92.09,-34.44,314.88,-83.75,-62.19,0,63.499,48.16245,11.556999,685,0.9,28.944,219.4,0 / 22,404012,2018-11-08 18:05:38:260
0.9524,8.7313,0.7729,1.1203,9.7031,0.8745,-0.0864,0.0227,-0.0114,-0.0056,-0.0409,1.00E-04,0,-19.71,-92.57,-31.79,329.12,-81.67,-52.02,0,56.07,48.16245,11.556999,685,0.9,28.944,219.4,0 / 22,406013,2018-11-08 18:05:40:261
1.0587,8.6754,0.6762,1.1377,9.6933,0.957,-0.2003,0.069,-0.1232,-0.1411,-0.0863,0.0488,0,-15.15,-97.57,-41.2,316.11,-81.28,-49.93,0,47.899,48.16245,11.556999,685,0.9,28.944,219.4,0 / 22,408012,2018-11-08 18:05:42:260
0.8725,8.7524,0.2883,1.331,9.6838,0.7894,-0.129,-0.0303,-0.0815,0.0899,-0.052,0.0553,0,-16.86,-95.11,-39.93,307.29,-80.92,-59.33,0,49.232,48.16245,11.556999,685,0.9,28.944,219.4,0 / 22,410013,2018-11-08 18:05:44:261
1.1245,8.6374,0.9147,1.3276,9.6737,0.9096,-0.0566,0.0325,0.0137,0.0068,-0.034,-0.0102,0,-10.79,-100.08,-46.64,299.93,-80.55,-55.58,0,43.661,48.16245,11.556999,685,0.9,28.944,219.4,0 / 22,412014,2018-11-08 18:05:46:262
1.2661,8.7347,0.8779,1.5242,9.6557,0.7836,-0.4853,0.0611,0.0615,0.0431,-0.1651,0.0789,0,-8.91,-102.24,-54.7,288.3,-79.93,-62.79,0,49.633,48.16245,11.556999,685,0.9,28.944,219.4,0 / 22,414015,2018-11-08 18:05:48:263
1.1245,8.1344,0.5461,0.7038,9.7691,0.4898,0.1423,-0.1583,0.2098,0.1236,-0.0693,0.0115,0,3.28,-106.95,-68.03,295.05,-84.98,-55.17,0,51.623,48.16245,11.556999,685,0.9,28.944,219.4,0 / 22,416013,2018-11-08 18:05:50:261
0.9432,8.7613,0.5276,1.07,9.7271,0.6389,0.0461,0.0092,-0.0248,-0.0214,0.0054,0.0104,0,-2.04,-105.05,-59.21,290.3,-82.7,-59.16,0,52.276,48.16245,11.556999,685,0.9,28.944,219.4,0 / 22,418012,2018-11-08 18:05:52:260
0.6931,8.7037,0.4567,1.0056,9.7386,0.5639,-0.0876,0.0116,-0.062,-0.0081,0.0077,-0.0013,0,-5.06,-102.44,-53.39,292.44,-83.25,-60.72,0,53.784,48.16245,11.556999,685,0.9,28.944,219.4,0 / 22,420013,2018-11-08 18:05:54:261
0.8081,8.6953,0.6744,1.1507,9.7014,0.8534,-0.1938,0.0551,-0.1254,0.0213,-0.0506,-0.0213,0,-7.25,-101.48,-50.07,299.39,-81.6,-53.44,0,45.899,48.16245,11.556999,685,0.9,28.944,219.4,0 / 22,422012,2018-11-08 18:05:56:260
0.9279,8.7002,1.0102,1.0686,9.6949,1.0185,-0.1191,0.0333,-0.0515,0.025,0.0215,-0.0029,0,-7.9,-101.19,-48.96,308.64,-81.34,-46.37,0,37.247,48.16245,11.556999,685,0.9,28.944,219.4,22-Oct,424013,2018-11-08 18:05:58:261
0.5742,8.7507,0.8632,0.7978,9.7252,0.9766,-0.0608,-0.0281,0.0732,0.0019,0.0355,0.0361,0,-3.56,-100.44,-51.77,314.79,-82.61,-39.25,0,37.821,48.16245,11.556999,685,0.9,28.944,219.4,0 / 22,426012,2018-11-08 18:06:00:260
0.7537,8.6225,-0.8441,0.592,9.7646,-0.6868,0.2223,-0.8647,-0.3695,-0.1479,0.2113,0.1077,0,-0.35,-100.16,-52.25,215.01,-84.69,-139.24,0,47.713,48.16245,11.556999,685,0.9,28.944,219.4,0 / 22,428013,2018-11-08 18:06:02:261
0.5389,9.0755,0.2111,1.2492,9.6769,0.9836,0.5071,-0.3258,-0.5484,0.1582,-0.2296,-0.0926,0,-4.66,-101.05,-52.68,297.25,-80.67,-51.78,0,43.232,48.16245,11.556999,685,0.9,28.944,219.4,0 / 22,430013,2018-11-08 18:06:04:261
1.499,8.6305,0.727,1.4858,9.6465,0.9531,-0.2575,0.0351,0.1461,0.004,-0.22,-0.011,0,-12.72,-98.14,-48.46,299.15,-79.63,-57.32,0,43.547,48.161587,11.557459,571,9.72,22.512,356.1,0 / 22,432013,2018-11-08 18:06:06:261
1.0925,8.5579,-0.85,1.0289,9.6932,-1.0744,0.1703,-0.0787,-0.028,-0.1377,-0.2145,0.0091,0,-9.53,-94.92,-41.86,224,-81.28,-136.24,0,42.156,48.161587,11.557459,571,9.72,22.512,356.1,0 / 22,434012,2018-11-08 18:06:08:260
0.6091,8.6556,1.1291,0.8945,9.7292,0.8439,-0.7889,0.1498,-0.0286,0.1879,0.1301,-0.0531,0,-1.56,-100.83,-52.02,303.56,-82.8,-46.67,0,46.396,48.161587,11.557459,571,9.72,22.512,356.1,0 / 22,436013,2018-11-08 18:06:10:261
-0.254,8.8646,0.257,0.9485,9.752,0.4119,-0.4788,0.0215,-0.1586,-0.0701,-0.207,-0.0042,0,-1.97,-99.81,-48.47,283.39,-83.95,-66.53,0,47.435,48.161587,11.557459,571,9.72,22.512,356.1,0 / 22,438012,2018-11-08 18:06:12:260
0.8812,8.8808,0.7865,1.287,9.6892,0.7962,-0.366,0.1268,-0.1228,0.0292,-0.0103,0.0271,0,-2.95,-100.13,-48.14,287.06,-81.12,-58.26,0,45.816,48.161587,11.557459,571,9.72,22.512,356.1,0 / 22,440012,2018-11-08 18:06:14:260
0.6396,8.7487,0.6315,1.1291,9.7123,0.7531,-0.2443,0.1076,-0.1726,1.00E-04,-0.1075,-0.0038,0,-5.33,-98.86,-44.13,293.34,-82.04,-56.3,0,41.348,48.161587,11.557459,571,9.72,22.512,356.1,0 / 22,442012,2018-11-08 18:06:16:260
0.8847,8.7608,1.1154,0.9473,9.719,0.9025,0.3928,-0.0148,0.2542,-0.0736,-0.4466,-0.0387,0,1.94,-99.84,-45.12,295.21,-82.33,-46.39,0,50.885,48.161587,11.557459,571,9.72,22.512,356.1,0 / 22,444013,2018-11-08 18:06:18:261
0.8035,8.7291,0.6844,0.5765,9.7593,0.7705,-0.3009,0.0228,0.2481,0.0677,-0.2021,0.0346,0,-0.32,-97.52,-43.53,313.99,-84.37,-36.8,0,52.42,48.161587,11.557459,571,9.72,22.512,356.1,0 / 22,446013,2018-11-08 18:06:20:261
1.1396,8.8465,-0.0565,1.4704,9.6886,0.3736,0.0755,0.0064,-0.0216,-0.1768,0.0807,0.0824,0,-0.46,-100.64,-49.49,265.54,-81.1,-75.74,0,50.553,48.161587,11.557459,571,9.72,22.512,356.1,0 / 22,448012,2018-11-08 18:06:22:260
1.021,8.726,0.5372,1.1071,9.7166,0.7296,-0.134,0.0291,-0.1163,0.0245,0.0536,0.0032,0,4.39,-101.86,-60.15,286.62,-82.23,-56.61,0,52.451,48.161587,11.557459,571,9.72,22.512,356.1,0 / 22,450013,2018-11-08 18:06:24:261
1.0195,8.7566,0.6235,1.3052,9.7055,0.52,0.1186,-0.0937,0.0606,-0.0362,-0.0561,0.0092,0,4.26,-103.67,-60.36,273.4,-81.76,-68.28,0,54.192,48.161587,11.557459,571,9.72,22.512,356.1,0 / 22,452013,2018-11-08 18:06:26:261
1.0706,8.7457,0.8672,1.3111,9.6523,1.1334,-0.1306,-0.0158,-0.0672,0.0437,-0.043,-0.0182,0,2.41,-103.08,-56.16,290.53,-79.82,-49.16,0,51.293,48.161587,11.557459,571,9.72,22.512,356.1,0 / 22,454012,2018-11-08 18:06:28:260
1.0254,8.6866,0.9295,1.2467,9.6715,1.0381,-0.2216,-0.0169,0.0561,-0.0295,0.0233,0.0334,0,2.01,-100.55,-45.21,285.84,-80.48,-50.22,0,58.098,48.161587,11.557459,571,9.72,22.512,356.1,0 / 22,456012,2018-11-08 18:06:30:260
1.067,8.7846,0.5134,1.401,9.685,0.6384,0.0664,-0.0012,-0.0343,-0.031,-0.2537,-0.022,0,-0.26,-98.1,-44.92,274.25,-80.97,-65.5,0,48.779,48.161587,11.557459,571,9.72,22.512,356.1,0 / 22,458013,2018-11-08 18:06:32:261
0.9335,8.6352,0.7826,1.1687,9.7127,0.6836,0.0409,0.0257,0.0202,-0.0131,-0.0332,0.0119,0,1.08,-103.96,-58.74,285.53,-82.06,-59.67,0,43.983,48.161587,11.557459,571,9.72,22.512,356.1,0 / 22,460013,2018-11-08 18:06:34:261
1.2348,8.7376,-0.4234,1.0523,9.7436,-0.3546,0.1724,0.0231,-0.0996,0.0463,0.1814,-0.0379,0,-1.02,-97.63,-43.06,239.91,-83.5,-108.62,0,46.388,48.161587,11.557459,571,9.72,22.512,356.1,0 / 22,462012,2018-11-08 18:06:36:260
0.7099,8.45,0.9295,1.2585,9.6676,1.0602,-0.3749,0.0317,-0.1171,-0.2659,0.1145,0.1691,0,-5.53,-100.61,-45.53,298.2,-80.34,-49.89,0,47.208,48.161587,11.557459,571,9.72,22.512,356.1,0 / 22,464013,2018-11-08 18:06:38:261
1.3065,8.6278,1.1183,1.0498,9.6829,1.1446,-0.4281,0.262,-0.4856,0.1126,0.2885,0.157,0,-18.25,-95.72,-44.11,330.25,-80.89,-42.53,0,53.875,48.161587,11.557459,571,9.72,22.512,356.1,0 / 22,466012,2018-11-08 18:06:40:260
1.0395,8.8536,-0.0268,1.1545,9.738,0.0914,0.1589,-0.0405,0.0134,-0.1216,0.0849,0.0197,0,-20.36,-92.97,-39.56,287.33,-83.22,-85.47,0,53.318,48.161587,11.557459,571,9.72,22.512,356.1,0 / 22,468012,2018-11-08 18:06:42:260
0.9972,8.6703,0.9725,1.2482,9.6714,1.0372,-0.1038,0.0464,-0.0618,-0.0281,-0.001,0.0109,0,-10.88,-100.13,-52.77,306.76,-80.47,-50.27,0,53.362,48.161587,11.557459,571,9.72,22.512,356.1,0 / 22,470013,2018-11-08 18:06:44:261
1.2383,9.1487,0.5411,0.3729,9.7348,-1.1246,-0.1611,-0.4892,-0.1715,0.4173,-0.4709,-0.1408,0,-9.09,-90.35,-34.39,205.64,-83.06,-161.66,0,51.101,48.161587,11.557459,571,9.72,22.512,356.1,0 / 22,472013,2018-11-08 18:06:46:261
1.3119,8.2191,0.0269,1.425,9.6504,1.0052,-0.0329,0.1305,0.0118,1.456,0.1013,-0.212,0,-17.21,-89.87,-36.69,312.39,-79.76,-54.8,0,52.843,48.161587,11.557459,571,9.72,22.512,356.1,0 / 22,474014,2018-11-08 18:06:48:262
0.428,8.7584,0.0292,0.986,9.7565,0.0945,0.0737,-0.0165,-0.0205,1.00E-04,0.0868,0.0082,0,-20.81,-95.67,-45.04,289.76,-84.2,-84.52,0,52.988,48.161587,11.557459,571,9.72,22.512,356.1,0 / 22,476012,2018-11-08 18:06:50:260
0.5821,8.7627,-0.1057,0.7516,9.7778,0.0042,-0.029,-0.006,-0.036,0.0106,-0.0475,4.00E-04,0,-19.33,-95.07,-44.42,285.18,-85.6,-89.68,0,55.444,48.161587,11.557459,571,9.72,22.512,356.1,0 / 22,478012,2018-11-08 18:06:52:260
0.8296,8.7419,0.2771,0.9271,9.759,0.268,0.0113,-0.0125,-5.00E-04,0.0088,-0.0294,0.0036,0,-16.88,-97.23,-48.76,295.55,-84.35,-73.88,0,49.664,48.161587,11.557459,571,9.72,22.512,356.1,0 / 22,480012,2018-11-08 18:06:54:260
0.8272,8.7768,0.2533,0.8869,9.7633,0.2482,0.0071,0.0056,0.0341,-0.0219,0.0012,0.0233,0,-13.51,-100.87,-52.64,291.01,-84.61,-74.37,0,44.968,48.161587,11.557459,571,9.72,22.512,356.1,0 / 22,482012,2018-11-08 18:06:56:260
0.7981,8.7635,0.2098,0.9115,9.7607,0.2622,-0.0497,0.0263,0.0118,0.0031,-0.0056,0.0036,0,-18.47,-96.64,-45.84,297.58,-84.45,-73.95,0,41.697,48.161587,11.557459,571,9.72,22.512,356.1,0 / 22,484013,2018-11-08 18:06:58:261
0.9158,8.797,0.877,1.2541,9.6695,1.0478,-0.151,-0.0066,0.1969,-0.0215,-0.0702,-0.0067,0,-14.56,-100.07,-55.56,312.05,-80.41,-50.12,0,46.349,48.161587,11.557459,571,9.72,22.512,356.1,0 / 22,486013,2018-11-08 18:07:00:261
0.622,8.765,0.0553,0.8746,9.7656,0.1974,0.0397,-0.029,0.0558,-0.0111,0.0444,0.0283,0,-14.56,-98.52,-53.44,289.5,-84.75,-77.28,0,48.34,48.161587,11.557459,571,9.72,22.512,356.1,0 / 22,488013,2018-11-08 18:07:02:261
0.989,8.7427,-0.2068,1.2564,9.7257,-0.0514,0.0836,0.041,-0.1433,0.0172,-0.1167,-0.0028,0,-9.8,-100.52,-59.33,264.77,-82.63,-92.34,0,50.341,48.161587,11.557459,571,9.72,22.512,356.1,0 / 22,490012,2018-11-08 18:07:04:260
0.8773,8.6202,0.3942,0.8997,9.7548,0.452,-0.0479,-0.0537,0.0637,0.0033,0.1373,0.0237,0,-11.82,-99.59,-55.87,299.64,-84.11,-63.32,0,52.801,48.161587,11.557459,571,9.72,22.512,356.1,0 / 22,492013,2018-11-08 18:07:06:261
0.9036,8.7265,0.5265,1.0007,9.7375,0.5913,0.0258,-0.0066,0.0557,0.0017,0.0455,-0.0035,0,-14.36,-96.55,-55.34,305.08,-83.19,-59.42,0,70.504,48.161587,11.557459,571,9.72,22.512,356.1,0 / 22,494013,2018-11-08 18:07:08:261
0.9681,8.7418,0.4772,1.0779,9.7237,0.6772,-0.0878,0.0475,-0.0495,-0.0336,0.0126,0.0349,0,-20.89,-90.57,-46.78,316.92,-82.54,-57.86,0,61.263,48.161587,11.557459,571,9.72,22.512,356.1,0 / 22,496013,2018-11-08 18:07:10:261
0.859,8.738,0.6248,1.1495,9.7075,0.7832,-0.1158,0.0312,-0.0625,0.0301,0.0086,-0.005,0,-11.15,-98.49,-58.94,303.32,-81.85,-55.73,0,48.911,48.161587,11.557459,571,9.72,22.512,356.1,0 / 22,498013,2018-11-08 18:07:12:261
0.8635,8.7614,0.5341,0.9738,9.7422,0.5587,-0.0409,0.0216,0.0151,0.0269,0.0016,-5.00E-04,0,-10.72,-98.7,-56.82,300.91,-83.43,-60.15,0,34.55,48.161587,11.557459,571,9.72,22.512,356.1,0 / 22,500013,2018-11-08 18:07:14:261
1.3114,8.6197,-0.3174,1.0924,9.7407,-0.3087,0.4253,-0.0849,-0.1019,0.0175,-0.0287,0.037,0,-15.35,-94.1,-47.71,259.29,-83.35,-105.78,0,47.051,48.161587,11.557459,571,9.72,22.512,356.1,0 / 22,502012,2018-11-08 18:07:16:260
0.8002,8.744,-0.0803,1.2073,9.731,-0.1463,-0.1324,-0.0898,0.2018,0.0023,-0.1674,0.0267,0,-17.56,-92.95,-43.24,271.36,-82.88,-96.91,0,35.537,48.161587,11.557459,571,9.72,22.512,356.1,0 / 22,504013,2018-11-08 18:07:18:261
1.0155,8.7663,0.0291,1.1135,9.743,0.072,-0.0101,0.0178,-0.0498,-0.0183,-0.0619,-0.0132,0,-23.47,-94.61,-46.71,288.28,-83.47,-86.3,0,38.227,48.161587,11.557459,571,9.72,22.512,356.1,0 / 22,506012,2018-11-08 18:07:20:260
1.0953,8.6894,0.0181,1.2754,9.7233,-0.0275,-0.0557,0.0288,-0.0331,-0.0103,-0.0171,0.0099,0,-21.22,-95.54,-47.37,278.77,-82.53,-91.24,0,42.612,48.161587,11.557459,571,9.72,22.512,356.1,0 / 22,508012,2018-11-08 18:07:22:260
0.9576,8.7202,0.0388,1.142,9.7399,-0.0233,-0.1163,0.0104,-0.0369,-0.0115,-0.012,0.0167,0,-22.21,-95.47,-46.88,281.7,-83.31,-91.17,0,43.976,48.161587,11.557459,571,9.72,22.512,356.1,0 / 22,510012,2018-11-08 18:07:24:260
1.1208,8.7742,0.2614,1.2025,9.7294,0.2526,-0.0108,-0.0204,0.0314,0.0562,0.0062,-0.0222,0,-23.99,-93.85,-46.93,297.21,-82.8,-78.14,0,44.601,48.161587,11.557459,571,9.72,22.512,356.1,0 / 22,512013,2018-11-08 18:07:26:261
1.1986,8.6371,0.609,1.32,9.6953,0.6559,-0.0061,-0.0271,0.0165,0.0631,-0.0555,-0.0213,0,-23.01,-95.6,-48.6,309.25,-81.36,-63.58,0,44.731,48.161587,11.557459,571,9.72,22.512,356.1,0 / 22,514012,2018-11-08 18:07:28:260
0.9526,8.7572,0.2162,1.1346,9.7364,0.2928,-0.0169,0.004,0.0208,0.0158,-0.0173,0.0012,0,-18.75,-98.66,-52.1,292.98,-83.14,-75.53,0,47.36,48.161587,11.557459,571,9.72,22.512,356.1,0 / 22,516012,2018-11-08 18:07:30:260
1.2161,8.6352,0.5433,1.2396,9.7176,0.4498,0.0203,0.0225,0.0593,-0.0247,-0.0093,0.0207,0,-22.96,-97.47,-48.36,303.43,-82.27,-70.05,0,39.593,48.161587,11.557459,571,9.72,22.512,356.1,0 / 22,518012,2018-11-08 18:07:32:260
1.1212,8.7595,0.2396,1.3166,9.7126,0.3183,0.1385,-0.0506,0.2178,0.0329,-1.00E-04,-0.001,0,-21.48,-94.59,-48.63,293.43,-82.06,-76.41,0,40.244,48.161587,11.557459,571,9.72,22.512,356.1,22-Sep,520013,2018-11-08 18:07:34:261
0.7008,8.7004,-1.7095,0.6443,9.6241,-1.7699,-0.0791,0.0014,-0.1011,-0.0306,-0.0237,0.0129,0,-17.65,-92.41,-41.06,212.04,-78.93,-160,0,47.047,48.161587,11.557459,571,9.72,22.512,356.1,0 / 22,522012,2018-11-08 18:07:36:260
1.5413,8.9589,0.1998,1.3302,9.7092,0.3646,0.3866,-0.1708,0.2745,-0.0671,0.0649,0.0559,0,-24.1,-96.31,-50.28,298.25,-81.91,-74.67,0,46.062,48.161587,11.557459,571,9.72,22.512,356.1,0 / 22,524012,2018-11-08 18:07:38:260
1.2143,8.6947,0.3896,1.1969,9.7277,0.3318,0.0116,-0.0597,0.1192,-0.0163,0.008,0.0188,0,-18.73,-100.33,-51.93,293.17,-82.72,-74.51,0,45.747,48.161587,11.557459,571,9.72,22.512,356.1,0 / 22,526012,2018-11-08 18:07:40:260
1.1169,8.7165,0.7051,1.5058,9.6763,0.5213,-0.2249,0.0922,-0.2358,0.1424,0.0334,0.0588,0,-17.98,-102.88,-54.84,291.12,-80.65,-70.9,0,52.608,48.161587,11.557459,571,9.72,22.512,356.1,0 / 22,528012,2018-11-08 18:07:42:260
-0.7521,9.3505,0.5541,0.0446,9.8058,0.1186,-1.2625,0.0825,0.0696,0.0965,-0.0993,-0.2212,0,-12.57,-108.02,-63.07,350.84,-89.26,-20.62,0,49.754,48.161587,11.557459,571,9.72,22.512,356.1,0 / 22,530012,2018-11-08 18:07:44:260
0.7129,8.6671,0.1014,0.8702,9.76,0.3939,-0.1676,0.0453,-0.5403,-0.0527,-0.7567,-0.0059,0,-15.79,-104.19,-86.92,298.88,-84.41,-65.65,0,47.703,48.161587,11.557459,571,9.72,22.512,356.1,0 / 22,532012,2018-11-08 18:07:46:260
0.707,8.2897,0.8643,0.8587,9.696,1.192,-0.7149,0.1669,0.2467,-0.0171,-0.2729,0.0212,0,-16.53,-103.83,-77.58,330.77,-81.38,-35.77,0,48.158,48.161587,11.557459,571,9.72,22.512,356.1,0 / 22,534012,2018-11-08 18:07:48:260
0.9297,8.4964,-0.1723,1.3016,9.7101,-0.4353,-0.4522,-0.0027,0.0879,0.0109,0.2715,0.0336,0,-15.85,-104.54,-68.03,253.18,-81.95,-108.49,0,47.635,48.161587,11.557459,571,9.72,22.512,356.1,0 / 22,536012,2018-11-08 18:07:50:260
0.8401,8.7424,-0.5986,1.0095,9.7373,-0.5795,-0.2753,0.0178,-0.0586,0.0253,0.079,-0.0043,0,-13.57,-107.26,-68.23,242.55,-83.18,-119.86,0,51.592,48.161587,11.557459,571,9.72,22.512,356.1,0 / 22,538014,2018-11-08 18:07:52:262
1.0647,8.762,-0.1071,1.3373,9.7145,-0.107,-0.0553,0.0052,0.0141,0.0364,0.0431,0.0045,0,-21.61,-102.2,-70.46,271.8,-82.14,-94.57,0,54.968,48.161587,11.557459,571,9.72,22.512,356.1,0 / 22,540012,2018-11-08 18:07:54:260
1.2165,8.6756,0.0561,1.4366,9.7008,-0.0398,0.0414,-0.0349,0.0991,-0.0283,0.0489,-0.0116,0,-26.91,-98.5,-70.51,278.13,-81.57,-91.59,0,53.499,48.161587,11.557459,571,9.72,22.512,356.1,0 / 22,542013,2018-11-08 18:07:56:261
1.8334,8.5465,0.8262,1.6402,9.6474,0.6391,-0.0394,0.1095,-0.0089,-0.0651,-0.5154,-0.0492,0,-28.75,-95.29,-85.57,300.04,-79.66,-68.71,0,47.495,48.161587,11.557459,571,9.72,22.512,356.1,0 / 22,544012,2018-11-08 18:07:58:260
1.6118,8.632,0.6749,1.2415,9.7158,0.4824,0.4765,0.0169,0.0906,-0.0983,0.1284,0.0619,0,-25.04,-94.9,-74.64,301.36,-82.19,-68.77,0,53.252,48.161587,11.557459,571,9.72,22.512,356.1,0 / 22,546013,2018-11-08 18:08:00:261
0.584,8.7501,0.8101,1.3802,9.6678,0.8943,0.0123,-0.1154,-0.0896,-0.0756,-0.244,-0.0391,0,-24.6,-92.98,-73.09,312.85,-80.35,-57.06,0,52.27,48.161587,11.557459,571,9.72,22.512,356.1,0 / 22,548012,2018-11-08 18:08:02:260
1.1116,8.664,0.4252,1.409,9.6937,0.4651,-0.0694,-0.0263,0.2318,0.1066,-8.00E-04,-0.0242,0,-29.45,-92.14,-72.43,300.99,-81.3,-71.73,0,51.014,48.161587,11.557459,571,9.72,22.512,356.1,0 / 22,550013,2018-11-08 18:08:04:261
1.2555,8.6174,0.9519,1.4665,9.6375,1.0674,-0.0846,0.0571,-0.0324,-0.0251,0.0115,0.0258,0,-30.21,-92.84,-76.06,319.12,-79.34,-53.95,0,45.215,48.161587,11.557459,571,9.72,22.512,356.1,0 / 22,552012,2018-11-08 18:08:06:260
0.5584,8.9039,1.1117,0.8604,9.6875,1.2583,-0.2922,-0.0024,0.2186,0.1174,0.3177,0.1093,0,-30.78,-91.7,-76.46,345.08,-81.06,-34.36,0,54.651,48.161587,11.557459,571,9.72,22.512,356.1,0 / 22,554012,2018-11-08 18:08:08:260
1.1009,8.6937,-1.7117,0.6403,9.6455,-1.6506,0.1923,0.3944,-0.2335,0.0089,0.5008,-0.0655,0,-21.93,-97.56,-67.17,212.11,-79.6,-158.8,0,55.62,48.161587,11.557459,571,9.72,22.512,356.1,0 / 22,556013,2018-11-08 18:08:10:261
0.9964,8.7232,0.3919,1.3164,9.7077,0.4443,-0.0904,0.003,0.0169,-0.2888,0.2146,0.1318,0,-26.54,-96.14,-74.3,299.76,-81.86,-71.35,0,54.118,48.161587,11.557459,571,9.72,22.512,356.1,0 / 22,558014,2018-11-08 18:08:12:262
1.0668,8.7283,0.6347,1.1223,9.7252,0.5753,-0.1128,0.0088,-0.0085,0.0299,-0.0121,-0.0119,0,-28.14,-96.41,-73.72,310.81,-82.61,-62.86,0,54.726,48.161587,11.557459,571,9.72,22.512,356.1,0 / 22,560012,2018-11-08 18:08:14:260
1.0048,8.748,0.3499,1.0484,9.7459,0.2988,0.0074,0.0104,0.002,0.0124,-0.0181,0.0068,0,-32.49,-95.43,-74.22,302.78,-83.62,-74.09,0,52.165,48.161587,11.557459,571,9.72,22.512,356.1,0 / 22,562012,2018-11-08 18:08:16:260
1.2199,8.7872,-1.029,1.0135,9.6834,-1.1726,0.1397,0.053,-0.1206,-0.145,0.0343,0.0289,0,-29.66,-98.66,-70.07,234.65,-80.91,-139.16,0,51.28,48.161587,11.557459,571,9.72,22.512,356.1,0 / 22,564012,2018-11-08 18:08:18:260
0.8667,8.6942,0.2548,0.9505,9.7602,0.0716,-0.3449,-0.064,0.1093,-0.0553,-0.2851,-0.0225,0,-25.11,-98.9,-71.37,286.56,-84.42,-85.69,0,54.632,48.161587,11.557459,571,9.72,22.512,356.1,0 / 22,566012,2018-11-08 18:08:20:260
1.8527,8.0912,0.6102,1.2702,9.6853,0.8674,-0.5531,0.1751,-0.0814,-0.7209,0.5474,0.1873,0,-23.06,-98.85,-76.92,312.34,-80.98,-55.67,0,48.898,48.161587,11.557459,571,9.72,22.512,356.1,0 / 22,568012,2018-11-08 18:08:22:260
-0.354,8.5848,0.8717,1.4974,9.6667,0.6949,0.0231,1.5641,-1.0324,-0.9749,-0.0032,0.297,0,-26.49,-96.51,-74.14,303.81,-80.31,-65.11,0,44.388,48.161587,11.557459,571,9.72,22.512,356.1,0 / 22,570013,2018-11-08 18:08:24:261
-0.4376,10.5002,-1.3206,0.5014,9.7732,-0.6357,0.5234,-0.1946,-0.0278,-0.4372,0.2329,0.4705,0,-27.02,-96.59,-75.26,233.51,-85.26,-141.74,0,50.841,48.161587,11.557459,571,9.72,22.512,356.1,0 / 22,572013,2018-11-08 18:08:26:261
-2.4568,11.5081,0.2836,-0.1572,9.7815,0.6835,-1.1178,-3.1508,-0.4924,0.1979,0.2529,0.0039,0,-17.7,-100.68,-77.14,28.69,-85.9,12.96,0,50.665,48.161587,11.557459,571,9.72,22.512,356.1,0 / 22,574012,2018-11-08 18:08:28:260
1.5913,7.0442,-1.4624,0.6671,9.7762,0.3879,-1.2033,1.2974,0.6326,-0.7762,-0.7468,0.1075,0,-24.84,-98.31,-74.44,314.73,-85.49,-59.82,0,48.916,48.161587,11.557459,571,9.72,22.512,356.1,0 / 22,576012,2018-11-08 18:08:30:260
-0.3456,8.501,-0.2496,0.1427,9.8056,0.003,-0.0014,0.2156,0.1971,-0.0118,0.0079,-0.0725,0,-21.24,-100.51,-70.48,286.8,-89.17,-88.8,0,51.921,48.161587,11.557459,571,9.72,22.512,356.1,0 / 22,578012,2018-11-08 18:08:32:260
0.8169,9.0243,1.7225,0.764,9.7041,1.1904,-0.2868,0.0693,0.2348,-0.0758,-0.011,0.0998,0,-24.21,-99.29,-70.77,342.53,-81.71,-32.69,0,45.152,48.161587,11.557459,571,9.72,22.512,356.1,0 / 22,580013,2018-11-08 18:08:34:261
0.9428,8.655,0.1451,1.2708,9.7072,0.5699,-0.1014,0.0585,-0.1094,0.0486,0.1806,0.0497,0,-18.48,-99.8,-74.06,298.03,-81.83,-65.85,0,53.443,48.161587,11.557459,571,9.72,22.512,356.1,0 / 22,582012,2018-11-08 18:08:36:260
1.0371,8.7443,0.9583,1.1483,9.6731,1.1329,0.0706,-0.0314,-0.082,-0.0066,0.0163,0.0228,0,-20.97,-100.8,-76.67,322.1,-80.53,-45.39,0,49.786,48.161587,11.557459,571,9.72,22.512,356.1,0 / 22,584012,2018-11-08 18:08:38:260
0.4379,8.9616,0.3296,1.1581,9.7158,0.6573,0.2265,0.0051,-0.0879,-0.0074,0.1084,0.0348,0,-28.29,-96.9,-72.12,313.41,-82.2,-60.42,0,36.758,48.161587,11.557459,571,9.72,22.512,356.1,0 / 22,586013,2018-11-08 18:08:40:261
0.446,8.7604,0.9259,0.8522,9.7272,0.9091,0.4492,-0.0741,0.0697,-0.039,-0.2338,-0.043,0,-29.37,-96.22,-73.04,334.5,-82.7,-43.15,0,49.779,48.161587,11.557459,571,9.72,22.512,356.1,0 / 22,588013,2018-11-08 18:08:42:261
0.7621,8.7283,0.6778,0.9511,9.7294,0.7777,-0.0922,0.013,-0.033,9.00E-04,-0.0498,-0.003,0,-33.33,-93.51,-72.55,329.06,-82.8,-50.72,0,48.74,48.161587,11.557459,571,9.72,22.512,356.1,0 / 22,590012,2018-11-08 18:08:44:260
0.6428,8.7611,0.6607,0.8265,9.7295,0.9079,-0.0407,-0.0039,0.0102,-0.0331,0.0174,0.0255,0,-34.71,-91.76,-73.08,340.43,-82.81,-42.31,0,46.005,48.161587,11.557459,571,9.72,22.512,356.1,0 / 22,592013,2018-11-08 18:08:46:261
0.79,8.7184,0.8546,0.8064,9.7262,0.9602,7.00E-04,-0.0138,0.0735,-0.0079,0.0315,0.0181,0,-34.55,-92.54,-73.21,343,-82.65,-40.02,0,45.925,48.161587,11.557459,571,9.72,22.512,356.1,0 / 22,594013,2018-11-08 18:08:48:261
0.4518,8.9296,2.1373,0.8194,9.7096,1.106,-0.7697,0.035,0.3135,0.061,0.3179,0.1362,0,-39.43,-91.92,-76.41,348.85,-81.93,-36.53,0,49.264,48.161587,11.557459,571,9.72,22.512,356.1,0 / 22,596013,2018-11-08 18:08:50:261
1.1847,8.7563,0.4093,1.4984,9.6761,0.5461,-0.2298,0.0667,-0.1247,0.0327,0.102,0.0241,0,-40.11,-90.75,-76.27,309.73,-80.64,-69.97,0,48.528,48.161587,11.557459,571,9.72,22.512,356.1,0 / 22,598013,2018-11-08 18:08:52:261
0.8854,8.7484,0.4278,1.0107,9.7425,0.4825,-0.0622,0.0095,-0.0039,-0.0072,0.0162,0.0134,0,-33.3,-94.06,-77.15,313.15,-83.44,-64.48,0,49.263,48.161587,11.557459,571,9.72,22.512,356.1,0 / 22,600013,2018-11-08 18:08:54:261
0.7273,8.778,0.4028,1.0674,9.7281,0.628,0.0031,0.0219,-0.0632,0.0448,0.0325,-0.0699,0,-31.42,-95.29,-75.64,316.65,-82.74,-59.53,0,52.256,48.161587,11.557459,571,9.72,22.512,356.1,0 / 22,602013,2018-11-08 18:08:56:261
0.8771,8.8551,0.4069,0.9526,9.7504,0.4392,0.0707,-0.0197,0.1479,-0.138,0.0973,0.0822,0,-30.94,-94.76,-77,311.22,-83.86,-65.25,0,49.796,48.161587,11.557459,571,9.72,22.512,356.1,0 / 22,604013,2018-11-08 18:08:58:261
0.9121,8.6457,0.2718,1.1421,9.7252,0.5353,-0.009,0.0444,-0.0965,0.2697,-0.1037,-0.0914,0,-26.17,-97.86,-76.13,306.48,-82.61,-64.89,0,52.731,48.161587,11.557459,571,9.72,22.512,356.1,0 / 22,606013,2018-11-08 18:09:00:261
0.7933,8.7896,0.2464,1.0531,9.7385,0.4723,-0.1879,-0.0307,0.0914,0.1153,-0.2934,-0.1302,0,-22.34,-98.07,-76.16,302.2,-82.08,-65.34,0,45.777,48.161587,11.557459,571,9.72,22.512,356.1,0 / 22,608012,2018-11-08 18:09:02:260
0.7965,8.7103,0.4873,0.9017,9.7511,0.5235,-0.0335,0.005,0.0497,0.0072,-0.009,0.0044,0,-14.81,-99.61,-76.62,304.58,-83.9,-59.86,0,45.121,48.161587,11.557459,571,9.72,22.512,356.1,0 / 22,610012,2018-11-08 18:09:04:260
1.2629,8.484,1.1215,0.9694,9.7505,0.3991,0.1212,-0.2132,0.6198,0.0257,-0.0663,-0.0547,0,-17.66,-97.34,-78.4,298.68,-83.86,-67.62,0,46.844,48.161587,11.557459,571,9.72,22.512,356.1,0 / 22,612013,2018-11-08 18:09:06:261
1.1842,9.0908,1.0962,1.7119,9.6486,0.3789,0.0422,-0.6225,0.2132,-0.1152,-0.4437,-0.1805,0,-17.72,-98.17,-76.61,282.76,-79.7,-77.52,0,51.337,48.161587,11.557459,571,9.72,22.512,356.1,0 / 22,614012,2018-11-08 18:09:08:260
1.5241,8.8342,0.0496,1.3025,9.7191,0.1142,-0.429,-0.0166,0.1502,-0.0916,-0.0819,0.0224,0,-21.09,-100.21,-73.85,261.77,-80.93,-102.32,0,49.453,48.161587,11.557459,571,9.72,22.512,356.1,22-Oct,616012,2018-11-08 18:09:10:260
0.9949,8.7033,0.3595,1.246,9.7179,0.424,-0.0403,0.0296,-0.0586,0.0377,-0.0191,-0.0121,0,-22.8,-100.04,-75.25,296.78,-82.29,-71.21,0,44.887,48.161587,11.557459,571,9.72,22.512,356.1,0 / 22,618013,2018-11-08 18:09:12:261
1.0443,8.7347,0.222,1.1502,9.7377,0.1597,-0.008,0.018,0.0359,0.0013,0.027,0.001,0,-22.27,-100.98,-74.89,285.62,-83.2,-82.1,0,50.814,48.161587,11.557459,571,9.72,22.512,356.1,0 / 22,620012,2018-11-08 18:09:14:260
0.9001,8.7417,0.3403,1.1069,9.741,0.2397,-0.0599,-0.0096,0.0256,-0.0034,-0.0354,0.0089,0,-25.67,-98.53,-76.38,293.42,-83.37,-77.78,0,55.365,48.161587,11.557459,571,9.72,22.512,356.1,0 / 22,622013,2018-11-08 18:09:16:261
0.9889,8.7027,0.1942,1.2278,9.704,0.7034,6.00E-04,0.0667,-0.1785,-0.0043,0.0286,0.0137,0,-27.7,-97.07,-78.3,293.88,-83.95,-79.23,0,56.06,48.161587,11.557459,571,9.72,22.512,356.1,0 / 22,624012,2018-11-08 18:09:18:260
1.0043,8.7555,0.262,1.1259,9.7341,0.3882,-0.0793,-0.0013,-0.0661,0.0017,0.0082,0.0147,0,-29.52,-95.65,-76.61,303.31,-83.02,-70.98,0,55.365,48.161587,11.557459,571,9.72,22.512,356.1,0 / 22,626012,2018-11-08 18:09:20:260
0.815,8.6655,0.1654,1.1379,9.7385,0.1939,-0.2075,-0.0108,-0.0608,-0.0259,-0.0509,-0.0214,0,-26.78,-96.26,-75.7,291.56,-83.24,-80.33,0,54.226,48.161587,11.557459,571,9.72,22.512,356.1,0 / 22,628013,2018-11-08 18:09:22:261
1.0661,8.7459,0.3837,1.1966,9.7248,0.4085,0.0275,0.0013,0.0439,-0.0063,-0.039,0.005,0,-27.6,-95.41,-77.99,301.07,-82.59,-71.15,0,52.501,48.161587,11.557459,571,9.72,22.512,356.1,0 / 22,630013,2018-11-08 18:09:24:261
1.0544,8.7052,0.1898,1.1563,9.7364,0.1904,-0.0704,-0.0075,0.017,0.0077,-0.0021,0.0033,0,-24.16,-93.88,-76.87,288.99,-82.98,-80.4,0,48.168,48.161587,11.557459,571,9.72,22.512,356.1,0 / 22,632013,2018-11-08 18:09:26:261
1.0427,8.7512,0.2678,1.2491,9.7134,0.5108,-0.0479,0.012,0.0107,0.0659,0.0387,0.0082,0,-28.82,-93.17,-78.63,304.94,-82.09,-67.76,0,48.073,48.161587,11.557459,571,9.72,22.512,356.1,0 / 22,634012,2018-11-08 18:09:28:260
1.4412,8.2664,0.3289,1.4049,9.7049,0.1088,0.296,0.6087,-0.6857,-0.5988,0.6726,0.152,0,-31.35,-90.89,-81.69,286.68,-81.74,-85.57,0,51.881,48.161587,11.557459,571,9.72,22.512,356.1,0 / 22,636013,2018-11-08 18:09:30:261
0.5567,8.4575,0.4745,1.4725,9.6841,0.4686,-0.2626,0.1567,0.3417,-0.0639,-0.8524,-0.0957,0,-34.63,-89.98,-85.89,301.96,-80.93,-72.35,0,55.67,48.161587,11.557459,571,9.72,22.512,356.1,0 / 22,638012,2018-11-08 18:09:32:260
0.98,8.6682,1.0385,1.3143,9.658,1.0802,-0.1361,0.0408,0.1427,0.0036,-0.0849,-0.0522,0,-33.03,-91.87,-78.35,321.42,-80.1,-54.37,0,50.903,48.161587,11.557459,571,9.72,22.512,356.1,0 / 22,640012,2018-11-08 18:09:34:260
1.0781,8.5283,-1.3198,0.9845,9.72,-0.8499,-0.3866,0.7172,-0.7997,0.2977,-0.1341,-0.0666,0,-29.12,-95.16,-76.61,242.21,-82.38,-130.8,0,54.845,48.161587,11.557459,571,9.72,22.512,356.1,0 / 22,642014,2018-11-08 18:09:36:262
0.9324,8.6701,-0.6802,1.2385,9.6939,-0.8157,-0.1942,-0.0638,0.0559,-0.0814,0.1099,0.0409,0,-23.12,-95.6,-76.9,244.08,-81.3,-123.37,0,58.021,48.161587,11.557459,571,9.72,22.512,356.1,0 / 22,644012,2018-11-08 18:09:38:260
1.0339,8.7916,-0.4164,1.0738,9.7365,-0.4664,0.3114,0.0311,0.1064,-0.1272,0.045,0.0693,0,-27.48,-93.93,-80.51,257.62,-83.14,-113.48,0,51.898,48.161587,11.557459,571,9.72,22.512,356.1,0 / 22,646013,2018-11-08 18:09:40:261
0.9426,8.6147,-0.2584,1.5448,9.6816,-0.2265,0.0935,-0.0085,-0.0777,0.048,0.0854,0.0957,0,-31.27,-91.29,-92.47,268.06,-81.56,-102.6,0,45.333,48.161587,11.557459,571,9.72,22.512,356.1,0 / 22,648012,2018-11-08 18:09:42:260
0.7257,8.8415,-0.1458,0.9688,9.7586,-0.0473,-0.0744,-0.033,-0.0155,0.0535,-0.0408,-0.0081,0,-35.01,-92.81,-84,284.11,-84.32,-92.79,0,47.968,48.161587,11.557459,571,9.72,22.512,356.1,0 / 22,650012,2018-11-08 18:09:44:260
1.4255,8.7293,-0.3704,1.1512,9.7366,-0.2092,-0.1612,0.1207,-6.00E-04,0.0875,0.1131,0.0545,0,-31.74,-93.06,-91.15,272.41,-83.15,-100.3,0,50.755,48.161587,11.557459,571,9.72,22.512,356.1,0 / 22,652012,2018-11-08 18:09:46:260
1.3123,9.3029,0.6163,1.4195,9.6826,0.6341,0.785,-0.321,0.815,-0.2202,-0.4962,-0.016,0,-30.17,-93.27,-80.49,306.21,-80.88,-65.93,0,55.856,48.161587,11.557459,571,9.72,22.512,356.1,0 / 22,654012,2018-11-08 18:09:48:260
1.5316,8.0122,-0.4811,0.925,9.7369,-0.7121,0.1863,-0.8379,0.6462,-0.4931,0.6257,-0.5434,0,-23,-98.49,-85.59,197.1,-79.61,-174.79,0,52.014,48.161587,11.557459,571,9.72,22.512,356.1,0 / 22,656012,2018-11-08 18:09:50:260
0.7385,8.7565,0.0641,1.0894,9.7447,0.1556,-0.3796,0.0256,-0.0154,-0.0065,-0.0171,-0.039,0,-31.23,-93.16,-92.46,290.83,-83.56,-81.87,0,54.912,48.161587,11.557459,571,9.72,22.512,356.1,0 / 22,658013,2018-11-08 18:09:52:261
0.677,8.7683,0.128,0.7321,9.7789,0.0838,-0.3106,0.0066,-0.1615,-0.0029,-0.0353,-0.0284,0,-31.71,-91.47,-96.29,291.29,-85.69,-83.47,0,49.121,48.161587,11.557459,571,9.72,22.512,356.1,0 / 22,660012,2018-11-08 18:09:54:260
1.0036,8.6592,1.0027,1.0528,9.7089,0.8939,0.0549,0.0084,0.0579,-0.0242,0.118,0.0382,0,-29.01,-92.25,-91.31,323.04,-81.9,-49.66,0,52.68,48.161587,11.557459,571,9.72,22.512,356.1,0 / 22,662013,2018-11-08 18:09:56:261
0.7292,8.7206,0.8566,0.9789,9.6943,1.1102,-0.0438,1.00E-04,0.1131,-0.0232,-0.1066,0.0154,0,-27.86,-92.18,-91.56,328.48,-81.67,-44.01,0,52.617,48.161587,11.557459,571,9.72,22.512,356.1,0 / 22,664012,2018-11-08 18:09:58:260
0.4755,8.7781,0.5018,0.7534,9.7561,0.6497,0.2017,-0.0321,0.0914,-0.0403,-0.0153,0.0216,0,-24.59,-94.66,-90.58,322.42,-84.18,-49.23,0,43.915,48.161587,11.557459,571,9.72,22.512,356.1,0 / 22,666012,2018-11-08 18:10:00:260
0.5921,8.8899,0.2477,0.7802,9.7655,0.4433,0.0644,-3.00E-04,-0.1109,0.0014,0.0419,0.0103,0,-27.57,-93.17,-92.34,312.67,-84.75,-60.4,0,48.324,48.161587,11.557459,571,9.72,22.512,356.1,0 / 22,668013,2018-11-08 18:10:02:261
0.5713,8.7532,0.6966,1.0652,9.7091,0.8769,-0.3188,0.0259,-0.1448,-0.0455,-0.0139,-9.00E-04,0,-28.3,-94.05,-91.4,321.28,-81.91,-50.54,0,43.604,48.161587,11.557459,571,9.72,22.512,356.1,0 / 22,670012,2018-11-08 18:10:04:260
0.9479,8.7237,0.9349,1.0297,9.6997,1.0128,0.0195,-0.0491,0.2312,-0.0072,0.0024,0.0124,0,-19.96,-99.12,-88.01,321.64,-80.74,-44.48,0,54.894,48.161587,11.557459,571,9.72,22.512,356.1,0 / 22,672012,2018-11-08 18:10:06:260
0.9205,8.7137,1.0129,1.1076,9.6649,1.2382,-0.0665,0.0295,-0.0017,0.0083,-0.0254,0.0052,0,-17.69,-99.67,-88.29,322.75,-80.25,-41.82,0,47.088,48.161587,11.557459,571,9.72,22.512,356.1,0 / 22,674013,2018-11-08 18:10:08:261
0.8859,8.7658,0.764,1.0903,9.6952,0.9922,-0.0168,-0.0212,-0.0153,0.0459,-0.0233,-0.0114,0,-18.03,-100.2,-87.44,317,-81.35,-47.7,0,48.267,48.161587,11.557459,571,9.72,22.512,356.1,0 / 22,676012,2018-11-08 18:10:10:260
0.6505,8.6553,0.4815,1.0468,9.7228,0.7366,-0.3341,-0.171,0.0721,0.0974,-0.2915,-0.0471,0,-21.21,-100.39,-84.66,312.42,-82.5,-54.86,0,43.748,48.161587,11.557459,571,9.72,22.512,356.1,0 / 22,678013,2018-11-08 18:10:12:261
0.7954,8.6738,0.3115,1.0817,9.7348,0.4843,0.0231,-0.0624,0.1308,-0.0531,0.0257,0.0133,0,-18.94,-99.27,-83.36,293.06,-83.74,-72.98,0,39.141,48.161587,11.557459,571,9.72,22.512,356.1,0 / 22,680013,2018-11-08 18:10:14:261
0.9783,8.7321,1.0066,0.9103,9.7327,0.7851,0.2327,-0.0052,0.1792,-0.0161,0.0803,0.037,0,-18.89,-100.06,-85.73,317.62,-82.96,-49.22,0,55.925,48.161587,11.557459,571,9.72,22.512,356.1,0 / 22,682012,2018-11-08 18:10:16:260
0.6844,8.7693,-0.0546,0.9735,9.7568,-0.1657,-0.3614,-0.1024,0.0655,-0.0932,0.0217,0.071,0,-23.35,-99.01,-81.2,269.36,-84.22,-99.66,0,50.939,48.161587,11.557459,571,9.72,22.512,356.1,0 / 22,684013,2018-11-08 18:10:18:261
1.4312,8.753,0.3391,1.3294,9.7026,0.5124,0.2204,-0.0686,-0.1356,-0.0049,0.0416,0.0173,0,-23.54,-96.76,-89.9,298.01,-81.65,-68.92,0,51.809,48.161587,11.557459,571,9.72,22.512,356.1,0 / 22,686013,2018-11-08 18:10:20:261
0.5023,8.8543,0.2479,0.8616,9.7659,0.2369,0.0625,0.0222,-0.0157,0.0294,0.2072,0.022,0,-21.33,-98.15,-85.92,292.48,-84.98,-76.02,0,51.987,48.161587,11.557459,571,9.72,22.512,356.1,0 / 22,688012,2018-11-08 18:10:22:260
0.6,8.7983,-0.6198,0.9971,9.7426,-0.5078,-0.4083,0.0153,0.1463,0.0206,0.0121,-0.065,0,-23.23,-97.31,-77.82,252.07,-83.45,-116.99,0,48.36,48.161587,11.557459,571,9.72,22.512,356.1,0 / 22,690013,2018-11-08 18:10:24:261
0.8638,8.7684,0.0833,0.9717,9.7569,0.1698,0.0821,-0.0264,0.047,0.0077,0.115,0.0217,0,-25.62,-95.98,-84.4,291.1,-84.23,-80.09,0,51.19,48.161587,11.557459,571,9.72,22.512,356.1,0 / 22,692012,2018-11-08 18:10:26:260
0.8381,8.7468,0.064,0.9605,9.7579,0.1763,-0.0076,1.00E-04,-5.00E-04,-0.0166,-0.0278,0.0262,0,-29.06,-94.56,-85.9,293.42,-84.28,-79.6,0,36.018,48.161587,11.557459,571,9.72,22.512,356.1,0 / 22,694013,2018-11-08 18:10:28:261
0.7747,8.7568,0.0248,0.9022,9.7649,0.0536,0.0089,-0.0102,-0.0205,0.006,-0.0192,0.0044,0,-27.94,-94.72,-85.07,287.89,-84.61,-84.8,0,46.849,48.161587,11.557459,571,9.72,22.512,356.1,0 / 22,696013,2018-11-08 18:10:30:261
0.887,8.7686,0.281,0.876,9.7654,0.2017,-0.0459,-0.0245,-0.0215,-0.0257,0.0445,0.0245,0,-29.72,-94.17,-84.79,297.42,-84.74,-77.03,0,33.134,48.161587,11.557459,571,9.72,22.512,356.1,0 / 22,698013,2018-11-08 18:10:32:261
0.8636,8.7979,0.1662,1.3593,9.7104,0.1746,-0.0605,-0.0773,0.0868,-0.0454,-0.5581,-0.0796,0,-26.62,-94.48,-90.54,285.98,-81.97,-82.68,0,45.962,48.161587,11.557459,571,9.72,22.512,356.1,0 / 22,700012,2018-11-08 18:10:34:260
0.7899,8.7571,0.115,0.6581,9.7845,-0.0028,0.4199,0.014,0.105,-0.0239,-0.0089,0.0311,0,-27.18,-96.72,-84.44,283.42,-86.15,-90.24,0,49.298,48.161587,11.557459,571,9.72,22.512,356.1,0 / 22,702013,2018-11-08 18:10:36:261
0.0699,8.7173,-1.5233,0.2363,9.7082,-1.3656,-0.3145,-0.1325,-0.0404,-0.032,-0.0327,0.0124,0,-21.7,-99.69,-76.03,203.99,-81.7,-168.12,0,48.402,48.161587,11.557459,571,9.72,22.512,356.1,0 / 22,704013,2018-11-08 18:10:38:261
0.8359,8.6768,0.2107,0.9042,9.7642,-0.1138,0.1443,0.0132,0.2596,-0.0331,-0.0734,-0.0203,0,-26.82,-94.99,-84.7,274.74,-84.67,-97.17,0,51.01,48.161587,11.557459,571,9.72,22.512,356.1,0 / 22,706013,2018-11-08 18:10:40:261
0.7093,8.7055,-0.0142,0.8438,9.7703,0.0147,-0.137,0.0183,-0.0447,-0.0359,-0.0205,0.0017,0,-28.75,-94.55,-85.89,284.56,-85.06,-89,0,55.21,48.161587,11.557459,571,9.72,22.512,356.1,0 / 22,708013,2018-11-08 18:10:42:261
0.7226,8.7587,0.2652,0.9055,9.7582,0.3575,-0.05,-0.0216,-0.0183,-0.0424,0.0025,0.0326,0,-30.89,-93.33,-87.14,306.39,-84.3,-68.46,0,45.576,48.161587,11.557459,571,9.72,22.512,356.1,0 / 22,710012,2018-11-08 18:10:44:260
0.7508,8.762,0.1245,0.9131,9.7626,0.1677,-0.0364,-0.0027,0.0048,-0.0152,-0.0193,0.0173,0,-27.87,-94.24,-85.92,291.56,-84.87,-81.42,0,45.323,48.161587,11.557459,571,9.72,22.512,356.1,22-Oct,712014,2018-11-08 18:10:46:262
0.8762,8.7341,0.0436,0.9749,9.7578,0.0722,0.0067,0.0142,-0.0523,0.0051,-0.0182,-0.0024,0,-28.91,-95.56,-85.79,286.97,-84.28,-85.77,0,49.921,48.161587,11.557459,571,9.72,22.512,356.1,0 / 22,714013,2018-11-08 18:10:48:261
0.8399,8.772,0.1072,0.944,9.7603,0.125,0.0129,-0.0309,-7.00E-04,-7.00E-04,-0.0098,0.0168,0,-28.18,-96.62,-84.83,289.99,-84.43,-82.46,0,44.815,48.161587,11.557459,571,9.72,22.512,356.1,0 / 22,716012,2018-11-08 18:10:50:260
0.7639,8.6444,-1.719,0.9631,9.6193,-1.6466,-0.0267,0.1048,-0.1774,0.0633,0.0188,0.2323,0,-24.41,-99.18,-73.5,219.77,-78.78,-149.68,0,47.571,48.161587,11.557459,571,9.72,22.512,356.1,0 / 22,718012,2018-11-08 18:10:52:260
0.5473,8.7336,-0.285,0.9418,9.7552,-0.3451,-0.0677,-0.0584,0.0515,0.0132,0.1237,0.015,0,-21.16,-97.66,-79.12,262.48,-83.46,-104.63,0,45.308,48.161587,11.557459,571,9.72,22.512,356.1,0 / 22,720012,2018-11-08 18:10:54:260
0.7973,8.7951,-0.2164,0.9073,9.7601,-0.2968,-0.0848,-0.0101,0.0221,0.0196,-0.0291,-0.0075,0,-19.28,-98.6,-79.68,258.67,-84.41,-108.11,0,45.205,48.161587,11.557459,571,9.72,22.512,356.1,0 / 22,722013,2018-11-08 18:10:56:261
0.6802,8.7635,-0.336,0.8482,9.7647,-0.3176,-0.0749,0.012,-8.00E-04,-0.0063,0.0165,0.01,0,-19.07,-99.07,-79.28,256.74,-84.7,-110.53,0,49.242,48.161587,11.557459,571,9.72,22.512,356.1,0 / 22,724012,2018-11-08 18:10:58:260
0.7991,8.7031,-0.0288,0.953,9.7587,-0.1736,-0.0178,0.0192,0.0276,-0.0295,0.0401,0.0113,0,-23.34,-96.44,-81.27,269.03,-84.33,-100.33,0,47.325,48.161587,11.557459,571,9.72,22.512,356.1,0 / 22,726012,2018-11-08 18:11:00:260
0.8623,8.7654,-0.0427,1.0427,9.7508,-0.0719,-0.0107,0.0152,-0.0627,-0.0155,-0.0139,0.0104,0,-30.02,-94.16,-84.34,281.1,-83.95,-92.2,0,54.041,48.161587,11.557459,571,9.72,22.512,356.1,0 / 22,728013,2018-11-08 18:11:02:261
0.9914,8.7159,-0.1633,1.0045,9.7511,-0.2785,0.1175,0.0118,-0.0353,-0.0849,0.017,0.034,0,-28.22,-96.17,-84.58,266.19,-83.9,-105.5,0,49.182,48.161587,11.557459,571,9.72,22.512,356.1,0 / 22,730013,2018-11-08 18:11:04:261
1.0276,8.7692,-0.1801,1.01,9.7528,-0.1836,0.0524,-0.0162,-0.0568,-0.0034,0.0044,0.014,0,-27.55,-95.96,-85.18,271.44,-83.99,-100.31,0,51.613,48.161587,11.557459,571,9.72,22.512,356.1,0 / 22,732013,2018-11-08 18:11:06:261
-0.0015,8.5123,1.0019,0.1555,9.8022,-0.2511,-0.0761,0.2064,-0.3753,-0.2421,0.0927,-0.1671,0,-26.22,-91.28,-79.35,228.59,-88.27,-148.23,0,53.628,48.161587,11.557459,571,9.72,22.512,356.1,0 / 22,734012,2018-11-08 18:11:08:260
0.193,7.9545,-1.4925,0.9896,9.7549,-0.1812,0.0034,0.0108,-0.3805,-0.5342,-0.2235,0.2022,0,-17.02,-91.19,-76.99,230.83,-82.84,-135.41,0,52.593,48.161587,11.557459,571,9.72,22.512,356.1,0 / 22,736013,2018-11-08 18:11:10:261
1.331,9.5439,-0.3237,1.3494,9.6814,0.7873,-0.1276,-0.2266,-0.1868,1.1985,-0.8419,-0.2815,0,-30.87,-85.82,-60.14,319.63,-80.83,-59.74,0,54.598,48.161587,11.557459,571,9.72,22.512,356.1,0 / 22,738013,2018-11-08 18:11:12:261
0.2681,8.4295,2.0465,1.8228,9.4335,1.9638,2.0745,0.1299,2.3485,0.3416,0.3728,-0.1144,0,-27.36,-88.2,-70.6,326.87,-74.14,-42.87,0,55.201,48.161587,11.557459,571,9.72,22.512,356.1,0 / 22,740013,2018-11-08 18:11:14:261
0.3707,4.389,-0.16,-0.6398,9.5881,-1.9567,1.022,0.3907,0.373,1.2511,0.0493,-1.0069,0,-57.24,-94.28,-67.18,198.56,-77.88,161.89,0,58.143,48.161587,11.557459,571,9.72,22.512,356.1,0 / 22,742013,2018-11-08 18:11:16:261
2.4235,7.4008,0.9881,0.0252,9.7945,-0.4877,0.4116,-0.2964,1.7886,0.2206,-2.198,-0.1339,0,-49.14,-103.92,-40.39,184.46,-82.18,134.64,0,57.29,48.161587,11.557459,571,9.72,22.512,356.1,0 / 22,744012,2018-11-08 18:11:18:260
-4.3149,6.4444,-3.8491,-3.4923,8.3418,-3.7932,0.0161,-0.7073,0.511,0.5133,-0.0251,-1.0096,0,6.26,-85.07,-17.1,162.93,-58.28,137.36,0,57.054,48.161587,11.557459,571,9.72,22.512,356.1,0 / 22,746012,2018-11-08 18:11:20:260
-5.4928,3.2393,-5.4943,-5.9053,4.7257,-6.2422,-0.6429,0.0445,-0.4099,0.3125,0.3022,0.0848,0,5.2,-76.57,-22.1,165.69,-28.81,136.59,0,59.93,48.161587,11.557459,571,9.72,22.512,356.1,0 / 22,748014,2018-11-08 18:11:22:262
-6.2637,3.6926,-5.9796,-6.2682,4.3241,-6.1792,-0.6026,-0.3186,0.0437,0.0825,-0.121,0.017,0,14.68,-73.14,-26.16,157.13,-26.16,134.59,0,55.579,48.161587,11.557459,571,9.72,22.512,356.1,0 / 22,750012,2018-11-08 18:11:24:260
-5.4681,3.7514,-6.3585,-5.7893,4.0341,-6.8103,-0.0647,-0.0952,-0.0213,0.0119,0.0184,0.0084,0,20.48,-71.5,-36.71,151.2,-24.1,140,0,59.093,48.161587,11.557459,571,9.72,22.512,356.1,0 / 22,752013,2018-11-08 18:11:26:261
-5.5476,3.5621,-6.4263,-5.783,3.949,-6.8653,0.0464,0.1891,-0.0872,-0.0299,-0.0207,0.0162,0,13.3,-71.62,-28.81,158.17,-23.75,139.89,0,54.17,48.161587,11.557459,571,9.72,22.512,356.1,0 / 22,754013,2018-11-08 18:11:28:261
-5.3362,3.4934,-6.6073,-5.7495,3.8679,-6.9392,-0.012,-0.0387,0.0126,0.0031,0.0104,0.0107,0,7.68,-71.78,-24.1,163.27,-23.23,140.36,0,61.93,48.161587,11.557459,571,9.72,22.512,356.1,0 / 22,756013,2018-11-08 18:11:30:261
-5.2832,3.5867,-6.5748,-5.7383,3.8793,-6.9421,0.0282,-0.0343,0.0138,-0.004,0.0051,0.0095,0,3.07,-71.96,-19.59,168.1,-23.3,140.42,0,54.436,48.161587,11.557459,571,9.72,22.512,356.1,0 / 22,758012,2018-11-08 18:11:32:260
-5.4437,3.5809,-6.5062,-5.7319,3.8904,-6.9412,0.0401,-0.0522,-0.0071,0.0036,0.0176,0.0026,0,-1.26,-71.99,-15.36,172.91,-23.47,140.25,0,59.811,48.161587,11.557459,571,9.72,22.512,356.1,0 / 22,760012,2018-11-08 18:11:34:260
-5.4249,3.7179,-6.5898,-5.6888,3.8568,-6.9953,0.0344,-0.047,0.0274,0.0028,1.00E-04,0.0103,0,8.22,-71.7,-25.03,162.99,-23.16,140.88,0,55.325,48.161587,11.557459,571,9.72,22.512,356.1,0 / 22,762012,2018-11-08 18:11:36:260
-5.4276,3.572,-6.5753,-5.6829,3.8648,-6.9956,-0.0398,-0.0385,-0.0088,0.0013,-3.00E-04,0.0088,0,0.42,-71.91,-18.72,170.55,-23.21,140.91,0,56.619,48.161587,11.557459,571,9.72,22.512,356.1,0 / 22,764012,2018-11-08 18:11:38:260
-5.5365,2.8066,-6.9174,-5.7121,3.5726,-7.1259,-0.2145,-0.5323,-0.0822,0.0223,0.0135,-0.0117,0,-5.39,-71.08,-13.54,176.1,-21.36,141.28,0,60.763,48.161587,11.557459,571,9.72,22.512,356.1,0 / 22,766014,2018-11-08 18:11:40:262
-5.3596,3.0457,-6.8889,-5.7196,3.2653,-7.266,-0.029,-0.058,0.0064,-0.0037,0.0066,0.0143,0,-10.28,-62.17,-16.83,177.65,-19.25,141.76,0,58.486,48.161587,11.557459,571,9.72,22.512,356.1,0 / 22,768013,2018-11-08 18:11:42:261
-5.5356,2.9919,-6.7895,-5.7351,3.1787,-7.2921,-0.0187,-0.203,-0.1114,0.007,0.0314,0.0109,0,-22.39,-65.81,-14.41,186.99,-18.91,141.82,0,63.03,48.161587,11.557459,571,9.72,22.512,356.1,0 / 22,770012,2018-11-08 18:11:44:260
-5.1319,2.6532,-6.8854,-5.612,3.322,-7.324,-0.2539,0.2743,-0.2248,0.0255,-0.0435,0.0038,0,-13.99,-63.75,-22.09,178.12,-19.8,142.54,0,61.202,48.161587,11.557459,571,9.72,22.512,356.1,0 / 22,772013,2018-11-08 18:11:46:261
-5.3777,2.4996,-7.0631,-5.6501,3.2294,-7.3361,-0.0141,-0.4515,-0.162,0.0168,0.0061,0.0118,0,-19.17,-65.06,-21.77,181.32,-19.23,142.4,0,64.549,48.161587,11.557459,571,9.72,22.512,356.1,0 / 22,774012,2018-11-08 18:11:48:260
-5.3374,3.5973,-7.1817,-5.6663,3.2891,-7.2969,0.4549,-0.3525,0.5832,0.0125,0.0094,0.014,0,-14.64,-67.83,-21.42,179.23,-19.57,142.3,0,61.826,48.161587,11.557459,571,9.72,22.512,356.1,0 / 22,776012,2018-11-08 18:11:50:260
-4.7362,2.6681,-6.3914,-5.6163,3.4335,-7.269,-0.1607,-0.1,-0.3647,0.0016,-0.0326,0.0275,0,-12.22,-65.42,-21.06,177.24,-20.49,142.31,0,59.95,48.161587,11.557459,571,9.72,22.512,356.1,0 / 22,778012,2018-11-08 18:11:52:260
-4.9999,3.1656,-6.8039,-5.5532,3.6097,-7.2321,0.0715,0.142,-0.2498,0.0104,0.0108,0.0231,0,-10.55,-66.11,-24.12,175.25,-21.6,142.48,0,57.838,48.161587,11.557459,571,9.72,22.512,356.1,0 / 22,780012,2018-11-08 18:11:54:260
-5.3788,2.9688,-6.5847,-5.4989,3.687,-7.2345,-0.2026,-0.0913,-0.3817,0.0174,-0.0176,-0.0017,0,-6.08,-67.46,-29.96,169.54,-22.08,142.76,0,60.754,48.161587,11.557459,571,9.72,22.512,356.1,0 / 22,782012,2018-11-08 18:11:56:260
-4.8628,3.4272,-6.9048,-5.504,3.8096,-7.1668,-0.3959,0.2408,-0.1708,0.0191,-0.0224,0.0126,0,-11.94,-64.82,-19.13,178.3,-22.71,142.52,0,57.927,48.161587,11.557459,571,9.72,22.512,356.1,0 / 22,784014,2018-11-08 18:11:58:262
-5.0853,3.7677,-6.6608,-5.4292,3.9367,-7.1552,0.0867,-0.0432,-0.0147,0.01,0.0087,-0.0094,0,-11.78,-65.51,-21.99,176.96,-23.67,142.81,0,52.757,48.161587,11.557459,571,9.72,22.512,356.1,0 / 22,786012,2018-11-08 18:12:00:260
-5.2585,3.7727,-6.589,-5.4137,4.0917,-7.0796,-0.0494,-0.1203,-0.2652,0.0106,-0.0119,0.0167,0,-14.94,-65.39,-19.39,180.31,-24.66,142.59,0,55.941,48.161587,11.557459,571,9.72,22.512,356.1,0 / 22,788012,2018-11-08 18:12:02:260
-5.0764,3.7928,-6.93,-5.379,4.1049,-7.0984,0.0585,-0.1414,-0.1668,-0.0027,-0.0618,0.0082,0,-12.36,-62.84,-27.19,174.44,-24.75,142.85,0,53.913,48.161587,11.557459,571,9.72,22.512,356.1,0 / 22,790013,2018-11-08 18:12:04:261
-5.1051,3.9446,-6.6263,-5.3346,4.0645,-7.1549,-0.4933,-0.5226,-0.3058,-0.0069,0.0114,0.011,0,-19.41,-65.01,-17.86,183.58,-24.49,143.05,0,58.165,48.161587,11.557459,571,9.72,22.512,356.1,0 / 22,792013,2018-11-08 18:12:06:261
-5.3347,3.3837,-6.7142,-5.3663,3.9679,-7.1853,-0.2262,0.0625,-0.3344,-0.0268,-0.0115,0.001,0,-29.45,-63.62,-9.91,194.08,-23.87,143.25,0,60.77,48.161587,11.557459,571,9.72,22.512,356.1,0 / 22,794013,2018-11-08 18:12:08:261
-5.2892,3.4901,-7.0787,-5.3396,3.901,-7.2416,0.0155,-0.0596,-0.325,-0.0038,-0.0181,-0.0035,0,-36.44,-66.29,0.54,203.28,-23.44,143.6,0,58.558,48.161587,11.557459,571,9.72,22.512,356.1,0 / 22,796013,2018-11-08 18:12:10:261
-4.6009,3.3547,-6.5127,-5.4735,3.9317,-7.1241,-0.0263,-0.086,-0.3077,-0.0448,-0.0432,-0.0135,0,-39.05,-61.85,5.31,207.69,-23.64,142.46,0,58.874,48.161587,11.557459,571,9.72,22.512,356.1,0 / 22,798013,2018-11-08 18:12:12:261
-5.064,3.7315,-6.5714,-5.4106,3.9072,-7.1854,0.1041,-0.2943,0.1597,-0.0089,-0.0075,0.0085,0,-30.67,-63.75,-2.51,198.89,-23.44,143.02,0,50.841,48.161587,11.557459,571,9.72,22.512,356.1,0 / 22,800012,2018-11-08 18:12:14:260
-5.412,3.6984,-6.9204,-5.3675,3.919,-7.2112,0.362,-0.4812,0.1941,-0.026,-0.0031,0.0096,0,-38.48,-64.31,-2.85,202.67,-23.56,143.34,0,59.181,48.161587,11.557459,571,9.72,22.512,356.1,0 / 22,802012,2018-11-08 18:12:16:260
-4.8784,3.072,-6.1129,-5.4182,3.973,-7.1435,0.4637,-0.7104,0.6196,0.0359,0.0034,-0.055,0,-25.38,-72.6,-5.77,192.29,-23.9,142.82,0,59.704,48.161587,11.557459,571,9.72,22.512,356.1,0 / 22,804013,2018-11-08 18:12:18:261
-5.2425,4.3359,-6.6435,-5.3803,4.0724,-7.1161,0.05,-0.3355,-0.0441,-0.0326,0.0466,0.0475,0,-20.23,-63.82,-12.01,187.23,-24.38,142.43,0,56.263,48.161587,11.557459,571,9.72,22.512,356.1,0 / 22,806012,2018-11-08 18:12:20:260
-4.211,3.1653,-6.5428,-5.1561,4.0653,-7.2841,-0.6978,0.7585,-1.1526,0.0277,0.0121,0.0499,0,-20.64,-66.56,-10.12,189.08,-24.4,143.97,0,55.032,48.161587,11.557459,571,9.72,22.512,356.1,0 / 22,808012,2018-11-08 18:12:22:260
-4.436,3.3741,-6.7009,-5.1138,4.0057,-7.3467,-0.3222,-0.3694,-0.6391,-0.0014,-0.0519,0.0263,0,-25.66,-64.43,-13.03,191.43,-24.11,145.16,0,58.005,48.161587,11.557459,571,9.72,22.512,356.1,0 / 22,810012,2018-11-08 18:12:24:260
-5.2635,3.6223,-7.5385,-5.1443,3.8951,-7.3848,-0.1155,-0.0043,0.1013,-0.0012,-0.0056,0.0046,0,-12.9,-66.86,-14.52,181.73,-23.4,145.14,0,57.339,48.161587,11.557459,571,9.72,22.512,356.1,0 / 22,812013,2018-11-08 18:12:26:261
-4.7081,3.6234,-6.8888,-5.1336,3.898,-7.3907,0.2121,-0.541,-0.1569,-0.0214,-0.0228,0.0426,0,-20.59,-59.21,-25.82,182.02,-23.42,145.14,0,56.174,48.161587,11.557459,571,9.72,22.512,356.1,0 / 22,814012,2018-11-08 18:12:28:260
-4.4994,2.4605,-6.2292,-5.1817,4.0981,-7.2475,-0.7206,0.9501,-0.0311,-0.0627,-0.0152,0.0545,0,-14.57,-58.19,-30.72,175.02,-23.89,144.46,0,56.954,48.161587,11.557459,571,9.72,22.512,356.1,0 / 22,816012,2018-11-08 18:12:30:260
-5.3342,3.7074,-6.7257,-5.3588,4.1121,-7.1095,-0.1472,-0.3375,-0.1314,-0.0036,0.016,0,0,-12.52,-54.65,-32.09,172.09,-24.79,142.99,0,61.035,48.161587,11.557459,571,9.72,22.512,356.1,0 / 22,818012,2018-11-08 18:12:32:260
-4.8762,3.5469,-6.13,-5.3271,4.1579,-7.1066,-0.1571,-0.2682,-0.0845,-0.0196,-0.0525,0.0083,0,-14.65,-55.95,-32.66,173.24,-25.09,143.14,0,56.619,48.161587,11.557459,571,9.72,22.512,356.1,0 / 22,820012,2018-11-08 18:12:34:260
-5.4451,3.4909,-6.5086,-5.588,4.1352,-6.917,-0.3186,-0.2368,0.2528,-0.0417,-0.0876,-0.0188,0,-15.44,-62.88,-23.3,177.84,-25.24,141.49,0,61.091,48.161587,11.557459,571,9.72,22.512,356.1,0 / 22,822012,2018-11-08 18:12:36:260
-5.454,3.5891,-6.446,-5.559,4.0253,-7.0046,-0.5063,-0.4406,0.0347,-0.0322,0.0164,-0.0144,0,-2.93,-66.72,-31.55,166.5,-24.23,142.01,0,55.922,48.161587,11.557459,571,9.72,22.512,356.1,0 / 22,824013,2018-11-08 18:12:38:261
-5.1006,3.1476,-6.7936,-5.5132,3.8788,-7.1225,0.0227,-0.3302,-0.1928,-0.063,-0.0294,0.0548,0,6.25,-75.64,-17.36,168.38,-23.3,142.26,0,59.079,48.161587,11.557459,571,9.72,22.512,356.1,0 / 22,826012,2018-11-08 18:12:40:260
-4.9662,2.8265,-7.0117,-5.5022,3.7185,-7.2159,-0.5136,0.0565,-0.5405,-0.0146,-0.0275,-0.016,0,-0.58,-63.07,-28.32,166.42,-22.28,142.67,0,60.683,48.161587,11.557459,571,9.72,22.512,356.1,0 / 22,828012,2018-11-08 18:12:42:260
-5.2208,4.1243,-7.3413,-5.4728,3.8269,-7.1815,0.3927,-0.1346,0.1372,0.0099,-0.0228,0.0071,0,-17.56,-60.13,-30.6,175.92,-22.8,141.96,0,52.235,48.161587,11.557459,571,9.72,22.512,356.1,0 / 22,830013,2018-11-08 18:12:44:261
-4.8595,3.1742,-5.9126,-5.5255,3.981,-7.0563,-0.1576,-0.4368,0.3158,-0.0014,0.0311,0.0022,0,-9.42,-58.29,-27.23,171.82,-23.78,142.72,0,53.665,48.161587,11.557459,571,9.72,22.512,356.1,0 / 22,832012,2018-11-08 18:12:46:260
-4.9818,3.3342,-6.2932,-5.4991,4.0356,-7.0458,0.2003,-0.2796,0.1719,-0.0317,0.0163,-0.0073,0,-13.46,-67.03,-23.92,176.42,-24.3,142.03,0,58.641,48.161587,11.557459,571,9.72,22.512,356.1,0 / 22,834012,2018-11-08 18:12:48:260
-5.2509,3.6033,-7.3889,-5.3866,4.075,-7.1098,0.0093,0.127,0.1481,-0.0195,0.0172,-0.0023,0,-21.33,-63.78,-35.01,176.65,-24.55,142.85,0,55.741,48.161587,11.557459,571,9.72,22.512,356.1,0 / 22,836012,2018-11-08 18:12:50:260
-4.914,3.2004,-5.719,-5.4781,4.1218,-7.0122,-0.1399,-0.2579,-0.084,-0.0251,0.0522,0.0266,0,-3.25,-70.43,-30.63,167.49,-25.28,142.39,0,55.691,48.161587,11.557459,571,9.72,22.512,356.1,0 / 22,838012,2018-11-08 18:12:52:260
-6.1418,5.221,-6.7766,-5.3743,4.2172,-7.0358,-0.1893,0.9155,-0.8222,-0.0075,0.0173,0.0229,0,-1.68,-61.71,-22.44,169.3,-25.13,141.63,0,57.323,48.161587,11.557459,571,9.72,22.512,356.1,0 / 22,840012,2018-11-08 18:12:54:260
-4.9773,3.7661,-6.5789,-5.322,4.1795,-7.0978,0.3454,-0.7462,-0.0055,-0.0131,-0.0079,0.0153,0,-23.41,-57.02,-27.4,181.89,-25.23,143.14,0,57.028,48.161587,11.557459,571,9.72,22.512,356.1,0 / 22,842012,2018-11-08 18:12:56:260
-4.8403,3.5411,-6.9883,-5.3343,4.2636,-7.0383,0.199,-0.222,-0.4241,-2.00E-04,0.1107,-0.0162,0,-14.88,-65.32,-28.31,176.07,-25.77,142.84,0,55.437,48.161587,11.557459,571,9.72,22.512,356.1,0 / 18,844013,2018-11-08 18:12:58:261
-5.1287,4.4821,-7.0533,-5.2066,4.4297,-7.0314,0.0746,0.0364,-0.2366,-0.0393,-0.0346,-0.0026,0,-6.54,-62.78,-16.64,175.86,-26.61,142.95,0,50.478,48.161587,11.557459,571,9.72,22.512,356.1,0 / 22,846012,2018-11-08 18:13:00:260
-4.958,4.3656,-6.3034,-5.2607,4.6709,-6.8321,0.0221,-0.0086,0.0978,0.0083,-0.0315,0.0072,0,-10.39,-62.05,-19.15,176.87,-28.09,142.77,0,49.06,48.161587,11.557459,571,9.72,22.512,356.1,0 / 22,848013,2018-11-08 18:13:02:261
-5.1031,3.2281,-6.8745,-5.1174,4.4173,-7.1042,-0.2782,-0.7053,-0.2148,-0.0022,0.0046,0.012,0,-5.34,-63.56,-26.55,170.26,-26.77,144.23,0,55.921,48.161587,11.557459,571,9.72,22.512,356.1,0 / 22,850012,2018-11-08 18:13:04:260
-5.1404,3.4288,-6.8392,-5.4074,3.6982,-7.2975,0.0473,-0.0413,0.0018,-0.0026,0.0016,0.0058,0,-2.36,-63.71,-27.38,167.97,-22.15,143.46,0,53.856,48.161587,11.557459,571,9.72,22.512,356.1,0 / 21,852012,2018-11-08 18:13:06:260
-5.2168,3.5026,-6.7932,-5.4626,3.7078,-7.2514,-0.0357,0.0157,-0.0055,0.0023,0.007,0.0073,0,-2.25,-63.11,-26.09,168.09,-22.16,143,0,56.087,48.161587,11.557459,571,9.72,22.512,356.1,0 / 22,854012,2018-11-08 18:13:08:260
-5.0147,3.4682,-6.8808,-5.4074,3.701,-7.2961,0.0012,0.01,-0.0349,0.0038,0.0086,0.0151,0,-7.01,-62.32,-21.97,173.47,-22.18,143.35,0,53.206,48.161587,11.557459,571,9.72,22.512,356.1,0 / 22,856013,2018-11-08 18:13:10:261
-4.834,3.1667,-6.8805,-5.4365,3.6878,-7.2812,0.0574,-0.0253,0.0392,0.0013,0.0115,0.0098,0,-7.93,-61.91,-20.59,174.64,-22.09,143.25,0,54.4,48.161587,11.557459,571,9.72,22.512,356.1,0 / 22,858013,2018-11-08 18:13:12:261
-5.1776,3.4369,-6.7994,-5.4535,3.6932,-7.2656,-0.0212,-0.049,0.0099,-0.0034,-0.008,0.0127,0,-9.57,-61.9,-18.91,177.02,-22.12,143.11,0,56.531,48.161587,11.557459,571,9.72,22.512,356.1,0 / 22,860012,2018-11-08 18:13:14:260
-5.1137,3.5684,-6.8744,-5.4118,3.6938,-7.2965,0.0322,-0.0379,-0.0142,-0.0062,-0.0057,0.0086,0,-11.93,-61.12,-16.58,179.57,-22.06,143.44,0,56.103,48.161587,11.557459,571,9.72,22.512,356.1,0 / 22,862012,2018-11-08 18:13:16:260
-5.102,3.4367,-6.8055,-5.422,3.704,-7.2837,-0.008,-0.0633,-0.0439,0.0011,0.009,0.0099,0,-15.77,-60.58,-13.11,184.53,-22.26,143.33,0,62.664,48.161587,11.557459,571,9.72,22.512,356.1,0 / 22,864013,2018-11-08 18:13:18:261
-5.0792,3.4279,-6.9279,-5.4155,3.7061,-7.2875,-0.0324,0.0173,-0.015,0.003,0.002,0.0105,0,-14.36,-60.61,-17.81,180.44,-22.2,143.38,0,57.352,48.161587,11.557459,571,9.72,22.512,356.1,0 / 22,866012,2018-11-08 18:13:20:260
-5.0619,3.4677,-6.9939,-5.3887,3.695,-7.3129,0.0088,-0.0779,-0.003,0.0015,0.0089,0.0116,0,-14.27,-60.6,-17.53,180.52,-22.13,143.61,0,61.002,48.161587,11.557459,571,9.72,22.512,356.1,0 / 22,868012,2018-11-08 18:13:22:260
-5.4003,2.516,-7.129,-5.4716,3.4849,-7.3544,-0.3572,-0.8191,-0.3153,0.0166,0.0135,-0.0028,0,-14.47,-60.76,-18.06,180.43,-21.44,143.35,0,60.898,48.161587,11.557459,571,9.72,22.512,356.1,0 / 22,870013,2018-11-08 18:13:24:261
-5.6775,2.5217,-7.3235,-5.7752,2.4505,-7.5374,-0.1056,0.167,-0.0225,-0.0123,0.0156,0.0168,0,-8.67,-65.15,-25.1,173.35,-14.09,142.53,0,63.021,48.161587,11.557459,571,9.72,22.512,356.1,0 / 22,872013,2018-11-08 18:13:26:261
-5.2936,2.3194,-6.7978,-5.6973,2.6454,-7.5308,-0.2178,0.2114,-0.2152,-0.0065,0.0115,0.0064,0,-25.7,-66,-23.11,185.39,-15.65,142.89,0,63.101,48.161587,11.557459,571,9.72,22.512,356.1,0 / 22,874012,2018-11-08 18:13:28:260
-5.2712,3.0328,-7.0242,-5.63,2.9811,-7.4556,0.1977,0.223,-0.003,-0.0022,-0.001,0.0037,0,-31.47,-68.15,-9.18,194.89,-17.7,142.94,0,62.368,48.161587,11.557459,571,9.72,22.512,356.1,0 / 22,876012,2018-11-08 18:13:30:260
-5.1392,3.4035,-6.7711,-5.5701,3.3236,-7.3551,0.0538,0.1262,0.1892,-0.0011,0.0075,0.0106,0,-18.28,-61.01,-18.51,182.51,-19.26,142.9,0,58.265,48.161587,11.557459,571,9.72,22.512,356.1,0 / 22,878012,2018-11-08 18:13:32:260
-5.3293,3.5263,-6.858,-5.5449,3.6092,-7.2386,0.0958,-0.0403,0.1418,-0.0189,0.0273,-0.0071,0,-26.32,-61.03,-30.47,181.91,-21.22,142.51,0,54.397,48.161587,11.557459,571,9.72,22.512,356.1,0 / 21,880013,2018-11-08 18:13:34:261
-5.4013,4.0234,-6.527,-5.5109,3.7135,-7.2118,0.2284,-0.6193,-0.0842,-0.0232,0.0046,0.0075,0,-15.26,-78.05,-13.16,182.9,-22.25,142.62,0,58.585,48.161587,11.557459,571,9.72,22.512,356.1,0 / 20,882012,2018-11-08 18:13:36:260
-5.3558,3.7082,-6.9937,-5.4559,3.8224,-7.1967,0.1087,-0.2439,0.1803,-0.0107,0.0444,0.0127,0,-35.48,-62.43,-8.61,198.24,-22.94,142.83,0,51.069,48.161587,11.557459,571,9.72,22.512,356.1,0 / 22,884013,2018-11-08 18:13:38:261
-4.6674,3.3081,-6.5034,-5.3866,3.8961,-7.2093,0.1829,-0.1811,0.2709,0.0038,-0.0191,0.0017,0,-51.45,-55.27,-1.57,212.09,-23.38,143.22,0,55.098,48.161587,11.557459,571,9.72,22.512,356.1,0 / 22,886012,2018-11-08 18:13:40:260
-4.9177,3.6234,-6.8643,-5.2912,3.9498,-7.2507,0.0488,0.1086,-0.1286,0.0044,-0.0135,0.0056,0,-48.19,-65.1,-9.44,204.26,-23.73,143.61,0,57.073,48.161587,11.557459,571,9.72,22.512,356.1,0 / 22,888012,2018-11-08 18:13:42:260
-5.2414,3.9806,-6.7984,-5.3871,4.0209,-7.1402,0.1977,-0.1132,0.0876,0.0036,0.0149,0.0325,0,-71.39,-61.55,16.15,223.93,-24.21,142.97,0,56.553,48.161587,11.557459,571,9.72,22.512,356.1,0 / 22,890012,2018-11-08 18:13:44:260
-4.8515,4.174,-6.7695,-5.3079,4.1823,-7.1067,0.1725,0.2581,0.0497,0.0109,0.0084,0.0166,0,-35.14,-66.91,-17.88,192.85,-25.24,143.24,0,55.862,48.161587,11.557459,571,9.72,22.512,356.1,0 / 22,892013,2018-11-08 18:13:46:261
-4.8037,3.9549,-6.5662,-5.178,4.4103,-7.0645,-0.0706,-0.2227,-0.0011,0.015,-0.0067,-0.0011,0,-21.87,-60.91,-8.27,191.59,-26.55,143.64,0,54.342,48.161587,11.557459,571,9.72,22.512,356.1,0 / 22,894012,2018-11-08 18:13:48:260
-5.0911,4.0438,-6.6425,-5.2358,4.3049,-7.0869,-0.1075,-0.0422,0.0603,-0.0041,0.0063,0.0089,0,-14.05,-61.36,-20.82,178.87,-26,143.36,0,55.094,48.161587,11.557459,571,9.72,22.512,356.1,0 / 22,896012,2018-11-08 18:13:50:260
-4.9062,4.0444,-6.6354,-5.2218,4.316,-7.0906,0.0113,0.0209,0.0124,0.0054,0.0199,0.0031,0,-29.28,-54.32,-4.97,199.42,-26.11,143.63,0,57.074,48.161587,11.557459,571,9.72,22.512,356.1,0 / 22,898012,2018-11-08 18:13:52:260
-5.0938,3.2977,-6.9462,-5.3073,3.6766,-7.3814,-0.0702,-0.1287,-0.0232,6.00E-04,0.004,0.0079,0,-3.31,-63.36,-28.42,168.37,-22.02,144.28,0,53.184,48.161587,11.557459,571,9.72,22.512,356.1,0 / 22,900012,2018-11-08 18:13:54:260
-5.1453,2.8087,-7.0287,-5.3331,3.5034,-7.4468,-0.2083,-0.3104,-0.1899,0.0022,0.0048,0.0076,0,-3.77,-64.42,-29.97,168.37,-21.46,144.28,0,57.12,48.161587,11.557459,571,9.72,22.512,356.1,0 / 22,902012,2018-11-08 18:13:56:260
-5.103,3.2249,-7.0197,-5.4116,3.3428,-7.464,0.0278,0.0519,-0.0092,-4.00E-04,5.00E-04,0.0095,0,-9.83,-65.87,-24.14,175.11,-19.44,143.93,0,53.344,48.161587,11.557459,571,9.72,22.512,356.1,0 / 22,904013,2018-11-08 18:13:58:261
-4.9431,3.5876,-6.8486,-5.262,3.811,-7.3456,0.0769,0.1331,0.0488,0.0114,0.008,0.0089,0,-11.96,-68.91,-31.61,173.37,-22.87,144.38,0,50.673,48.161587,11.557459,571,9.72,22.512,356.1,0 / 22,906012,2018-11-08 18:14:00:260
-4.8694,3.8701,-6.7634,-5.1349,4.1335,-7.2607,0.0117,0.0035,-0.0138,-0.0031,-0.0103,0.0108,0,-25.04,-66.79,-26.04,184.07,-24.93,144.73,0,51.931,48.161587,11.557459,571,9.72,22.512,356.1,0 / 22,908013,2018-11-08 18:14:02:261
-4.9302,3.4732,-6.9845,-5.2824,3.7201,-7.3775,-0.0469,-0.0919,-0.0243,-0.0049,-0.0028,0.0104,0,-23.86,-66.69,-26.97,182.92,-22.55,144.49,0,54.661,48.161587,11.557459,571,9.72,22.512,356.1,0 / 22,910012,2018-11-08 18:14:04:260
-5.007,3.4835,-6.9181,-5.2949,3.6933,-7.382,0.0394,-0.0107,-0.0261,-0.0027,-0.0015,0.0107,0,-19.63,-67.45,-29.07,179.49,-22.06,144.32,0,50.094,48.161587,11.557459,571,9.72,22.512,356.1,0 / 22,912013,2018-11-08 18:14:06:261
-4.9138,3.443,-6.9506,-5.3018,3.7011,-7.3731,0.0075,-0.013,-0.0117,-5.00E-04,8.00E-04,0.0095,0,-29.95,-65.65,-21.73,188.79,-22.17,144.28,0,48.474,48.161587,11.557459,571,9.72,22.512,356.1,0 / 22,914012,2018-11-08 18:14:08:260
-4.9391,3.4936,-6.9089,-5.3153,3.6754,-7.3763,-0.0382,0.0351,0.0127,-8.00E-04,-0.0016,-0.0021,0,-22.42,-67.44,-25.94,182.03,-22.01,144.22,0,53.558,48.161587,11.557459,571,9.72,22.512,356.1,0 / 22,916012,2018-11-08 18:14:10:260
-4.9562,3.4294,-6.9529,-5.3052,3.6684,-7.387,0.0078,0.0029,-0.0089,2.00E-04,-0.0022,0.0025,0,-22.49,-67.32,-26.61,181.61,-21.9,144.31,0,49.574,48.161587,11.557459,571,9.72,22.512,356.1,0 / 22,918012,2018-11-08 18:14:12:260
-4.9689,3.4568,-7.0366,-5.2899,3.6712,-7.3966,0.0257,0.0064,0.0214,-0.0026,-2.00E-04,0.0011,0,-19.13,-67.64,-29,178.94,-21.99,144.44,0,47.918,48.161587,11.557459,571,9.72,22.512,356.1,0 / 22,920012,2018-11-08 18:14:14:260
-4.9139,3.4295,-6.997,-5.2867,3.6673,-7.4008,0.0324,-0.0064,-0.0222,-0.0011,-0.0031,-0.0025,0,-13.46,-68.86,-33.19,173.61,-21.96,144.46,0,55.504,48.161587,11.557459,571,9.72,22.512,356.1,0 / 22,922013,2018-11-08 18:14:16:261
-5.0167,3.4572,-6.8774,-5.3071,3.6813,-7.3792,-0.0288,0.0221,0.0087,0.0024,9.00E-04,7.00E-04,0,-19.41,-67.69,-28.84,178.86,-22.05,144.28,0,53.832,48.161587,11.557459,571,9.72,22.512,356.1,0 / 22,924012,2018-11-08 18:14:18:260
-5.0809,3.0273,-7.0423,-5.4078,3.2965,-7.4873,-0.0157,-0.0296,-0.0617,0.0031,-0.0015,-0.0034,0,-45.7,-63.9,-10.06,203.53,-20.15,144.13,0,53.255,48.161587,11.557459,571,9.72,22.512,356.1,0 / 22,926012,2018-11-08 18:14:20:260
-5.5076,2.0245,-7.4174,-5.6207,2.2729,-7.7079,0.0127,-0.3072,0.0707,0.0065,0.0142,-0.0021,0,-29.2,-70.59,-18.44,189.52,-13.99,143.92,0,63,48.161587,11.557459,571,9.72,22.512,356.1,0 / 22,928012,2018-11-08 18:14:22:260
-5.5386,2.3636,-6.966,-5.6824,2.2158,-7.6793,-0.0515,0.229,0.1559,4.00E-04,0.0259,-0.0062,0,-53.28,-64.38,3.65,213.2,-13.06,143.5,0,65.025,48.161587,11.557459,571,9.72,22.512,356.1,0 / 22,930012,2018-11-08 18:14:24:260
-5.3642,2.439,-6.7249,-5.6698,2.5054,-7.5991,0.2367,0.4855,0.4574,0.0291,0.0344,0.0064,0,-41.7,-62.32,-14.2,200.07,-14.8,143.27,0,61.775,48.161587,11.557459,571,9.72,22.512,356.1,0 / 22,932012,2018-11-08 18:14:26:260
-5.243,3.514,-5.9707,-5.7075,3.0065,-7.3862,-0.2014,0.7381,-0.0117,-0.0888,-0.0416,0.0424,0,-35.49,-67.31,-14.87,194.26,-17.09,142.7,0,58.277,48.161587,11.557459,571,9.72,22.512,356.1,0 / 22,934012,2018-11-08 18:14:28:260
-5.4715,3.4863,-6.7403,-5.6385,3.2467,-7.3374,0.175,0.1908,0.1185,0.0043,0.0031,-0.0195,0,-9.16,-70.28,-23.86,174.32,-19.24,142.72,0,54.836,48.161247,11.567165,574,28.08,67.536,90.3,0 / 22,936012,2018-11-08 18:14:30:260
-4.9959,3.7838,-6.7976,-5.5809,3.4994,-7.2648,0.3865,-0.1426,0.3765,-0.0201,0.0177,0.0219,0,-1.7,-70.68,-28.74,167.89,-20.91,142.47,0,58.845,48.161247,11.567165,574,28.08,67.536,90.3,0 / 22,938012,2018-11-08 18:14:32:260
-4.9991,3.4394,-6.906,-5.4874,3.6456,-7.2642,0.2102,0.1289,0.2008,-0.0113,-1.00E-04,0.0116,0,-13.42,-61.52,-31.81,172.74,-21.82,142.93,0,51.914,48.161247,11.567165,574,28.08,67.536,90.3,0 / 22,940013,2018-11-08 18:14:34:261
-4.8872,3.6727,-6.6308,-5.4518,3.779,-7.2227,0.0437,0.6611,0.1881,-0.0078,0.0257,0.0095,0,-8.08,-71.36,-30.2,171.34,-22.3,142.99,0,50.966,48.161247,11.567165,574,28.08,67.536,90.3,0 / 22,942012,2018-11-08 18:14:36:260
-5.1838,4.0783,-6.8922,-5.2815,3.8999,-7.2847,0.3854,-0.0579,0.0482,0.0027,0.0183,0.0033,0,-4.91,-70.47,-28.11,170.52,-23.46,143.99,0,57.008,48.161247,11.567165,574,28.08,67.536,90.3,0 / 22,944012,2018-11-08 18:14:38:260
1.3756,8.6323,-1.5133,-1.6371,9.2139,-2.9318,1.2649,-1.1129,0.7526,-0.3806,-0.0259,0.3469,0,-9.39,-91.35,-34.18,172.14,-69.98,150.82,0,56.207,48.161247,11.567165,574,28.08,67.536,90.3,0 / 22,946012,2018-11-08 18:14:40:260
0.4603,8.2612,-1.1879,-0.5983,9.6116,-1.8521,0.9245,0.1005,0.5293,0.0237,-0.2376,-0.0538,0,-3.98,-87.79,-24.76,174.72,-78.55,162.1,0,53.106,48.161247,11.567165,574,28.08,67.536,90.3,0 / 22,948013,2018-11-08 18:14:42:261
-0.1548,7.8485,-1.2989,-1.2725,9.4763,-2.1799,0.7546,-0.315,-0.3847,0.5237,-0.2332,-0.2699,0,15.09,-78.7,-30.53,137.06,-81.55,149.84,0,51.51,48.161247,11.567165,574,28.08,67.536,90.3,0 / 22,950013,2018-11-08 18:14:44:261
-0.6478,8.5615,-1.6904,-0.9757,9.7118,-0.9485,0.7178,0.1337,0.3059,-0.2885,-0.2109,0.2972,0,20.1,-78.53,-33.6,128.62,-74.31,134.5,0,55.531,48.161247,11.567165,574,28.08,67.536,90.3,0 / 22,952012,2018-11-08 18:14:46:260
-1.4255,10.0179,0.8992,-2.1573,9.4009,-1.772,-0.176,-1.4517,-0.9178,0.2831,0.0704,0.1668,0,38.6,-73.75,-70.64,113.96,-73.46,129.4,0,53.347,48.161247,11.567165,574,28.08,67.536,90.3,0 / 22,954012,2018-11-08 18:14:48:260
0.509,8.3933,1.1362,1.1986,9.6709,1.0985,-0.9069,0.4541,0.6825,0.9462,-0.1374,-0.3472,0,33.47,-82.63,-86.14,282.85,-80.46,-47.49,0,53.46,48.161247,11.567165,574,28.08,67.536,90.3,0 / 22,956012,2018-11-08 18:14:50:260
1.5649,8.4744,4.6512,0.09,9.802,-0.2873,-1.2001,1.6012,2.1221,-0.459,-0.4499,0.2633,0,29.12,-86.29,-92.17,153.04,-79.3,166.62,0,58.732,48.161247,11.567165,574,28.08,67.536,90.3,0 / 22,958012,2018-11-08 18:14:52:260
1.1363,8.13,0.5923,1.7414,9.5711,1.2376,-1.2136,-0.2534,-1.3296,-0.7302,0.7744,0.1354,0,-0.16,-103.75,-58.61,205.22,-80.7,-148.08,0,55.997,48.161247,11.567165,574,28.08,67.536,90.3,0 / 22,960013,2018-11-08 18:14:54:261
-0.666,8.3728,0.085,0.2029,9.6378,-1.8005,1.759,0.1428,4.183,-0.2879,0.0663,-0.385,0,-12.18,-105.78,-81.04,192.17,-79.35,-173.57,0,55.302,48.161247,11.567165,574,28.08,67.536,90.3,0 / 22,962012,2018-11-08 18:14:56:260
4.8439,28.2798,2.6312,-0.5471,9.7748,0.5693,4.1055,-1.6098,5.1092,-2.1121,-2.512,1.4785,0,-9.44,-106.25,-71.15,56.92,-85.38,43.86,0,60.692,48.161247,11.567165,574,28.08,67.536,90.3,0 / 22,964012,2018-11-08 18:14:58:260
0.3281,14.1437,3.9162,0.8979,9.7491,0.5645,1.6263,-1.3621,-1.4667,-0.7849,-0.3007,0.2616,0,-11.15,-103.72,-59.58,180.99,-72.16,171.07,0,58.397,48.161247,11.567165,574,28.08,67.536,90.3,0 / 22,966013,2018-11-08 18:15:00:261
2.7569,8.3575,-2.1993,0.6363,9.5952,1.9231,-0.7403,-0.6245,-1.8962,-2.2975,-1.4637,1.1055,0,-11.25,-106.97,-66.9,166.2,-74.94,151.72,0,56.141,48.161247,11.567165,574,28.08,67.536,90.3,0 / 22,968012,2018-11-08 18:15:02:260
1.0603,4.1354,-3.5305,-1.3729,9.4667,-2.1603,-3.2021,3.325,-3.2395,-1.5504,-0.5904,0.483,0,-4.52,-104.17,-57.54,160.75,-74.87,147.56,0,56.499,48.161247,11.567165,574,28.08,67.536,90.3,0 / 22,970012,2018-11-08 18:15:04:260
0.6147,1.9836,-1.7351,-1.3555,9.4163,-2.3804,-0.1209,5.3032,-4.8561,-0.743,0.0014,0.1617,0,-23.37,-110.29,-61.33,173.71,-73.78,150.34,0,58.496,48.161247,11.567165,574,28.08,67.536,90.3,0 / 22,972013,2018-11-08 18:15:06:261
-3.0787,10.5424,-5.3416,-0.6169,9.5202,-2.2705,2.7758,8.4735,1.183,1.0276,2.2715,-1.3902,0,10.98,-117.13,-55.43,155.55,-74.9,154.54,0,58.436,48.161247,11.567165,574,28.08,67.536,90.3,0 / 22,974012,2018-11-08 18:15:08:260
-0.2682,12.4219,-3.5775,-0.7647,9.7031,-1.1979,1.1483,0.0784,-2.5083,-2.3478,0.2342,0.5821,0,29.02,-104.52,-66.57,155.48,-58,163.34,0,53.711,48.161247,11.567165,574,28.08,67.536,90.3,0 / 22,976013,2018-11-08 18:15:10:261
-0.4983,5.9592,-1.0797,-0.5526,9.7425,-0.9744,1.3839,-0.3983,-1.7973,-2.5396,0.7574,0.6061,0,8.02,-77.16,-79.21,147.88,-83.44,150.44,0,54.846,48.161247,11.567165,574,28.08,67.536,90.3,0 / 22,978012,2018-11-08 18:15:12:260
0.8705,11.556,-2.793,-1.8596,8.3662,-4.7664,0.6522,-1.3823,0.2105,-0.5281,-0.0875,-0.4257,0,-9.19,-76.81,-65.5,170.85,-58.55,158.69,0,55.523,48.161247,11.567165,574,28.08,67.536,90.3,0 / 22,980012,2018-11-08 18:15:14:260
-0.7105,10.7353,0.6172,-0.1075,9.7589,-0.9607,-1.1512,-1.2886,-0.2033,-1.0484,0.4462,0.4599,0,-18.82,-83.83,-62.07,176.38,-79.44,158.55,0,52.807,48.161247,11.567165,574,28.08,67.536,90.3,0 / 22,982013,2018-11-08 18:15:16:261
1.5514,23.381,2.0746,-0.4311,9.5674,-2.1092,4.0908,0.277,2.9984,-0.6607,0.0026,0.4422,0,-12.91,-90.96,-78.71,166.9,-69.93,153.23,0,57.238,48.161247,11.567165,574,28.08,67.536,90.3,0 / 22,984013,2018-11-08 18:15:18:261
-3.4816,21.8243,-4.9438,-0.823,9.6311,-1.6539,0.008,1.8032,1.2843,0.3662,-0.5427,-0.1785,0,-3.26,-83.24,-76.1,159.59,-79.14,153.55,0,58.27,48.161247,11.567165,574,28.08,67.536,90.3,0 / 22,986012,2018-11-08 18:15:20:260
1.4755,8.8065,-1.9821,-0.5473,9.7271,-1.1199,0.1291,-0.0648,0.1388,-0.9511,-0.2563,0.3088,0,-9.18,-83.7,-82.83,162.24,-82.7,153.95,0,51.039,48.161247,11.567165,574,28.08,67.536,90.3,0 / 22,988012,2018-11-08 18:15:22:260
1.7049,9.7029,-3.516,-2.1383,8.438,-4.5164,-0.1912,-1.1665,-0.913,-0.1028,0.4251,0.3732,0,-5.85,-77.23,-70.6,154.64,-79.44,145.31,0,54.421,48.161247,11.567165,574,28.08,67.536,90.3,0 / 22,990013,2018-11-08 18:15:24:261
-2.5744,14.6243,-0.5052,-1.2083,9.6779,-1.0243,3.2247,-5.0453,4.8711,-0.6066,0.8707,-0.5322,0,-12.34,-82.57,-72.1,166.16,-65.74,151.44,0,57.534,48.161247,11.567165,574,28.08,67.536,90.3,0 / 22,992013,2018-11-08 18:15:26:261
0.2119,12.1923,-1.5658,-1.8182,9.1509,-3.0208,2.1077,-4.8027,3.398,2.5186,-0.9234,-1.6421,0,-6.21,-78.42,-70.39,160.39,-68.93,148.96,0,58.468,48.161247,11.567165,574,28.08,67.536,90.3,0 / 22,994013,2018-11-08 18:15:28:261
1.5,12.2973,-1.4316,-1.5439,9.2655,-2.8173,0.1589,-1.5329,3.0755,1.0009,0.5134,-1.8143,0,-5.49,-77.28,-64.1,161.87,-70.88,151.28,0,57.329,48.161247,11.567165,574,28.08,67.536,90.3,0 / 22,996012,2018-11-08 18:15:30:260
2.7123,12.1752,0.5996,-0.6146,9.5587,-2.1031,0.4843,3.0218,1.7125,-1.198,0.1186,0.5479,0,-15.6,-79.76,-77.17,335.62,-78.72,-30.98,0,56.518,48.161247,11.567165,574,28.08,67.536,90.3,0 / 22,998013,2018-11-08 18:15:32:261
-1.3798,12.5495,1.937,0.4824,9.7939,0.1279,3.6068,1.8883,0.0725,-0.6396,-0.3875,0.4207,0,-13.15,-76.84,-91.85,3.06,-81.13,-5.41,0,53.125,48.161247,11.567165,574,28.08,67.536,90.3,0 / 22,1000014,2018-11-08 18:15:34:262
-1.3053,13.8514,3.646,0.4901,9.7874,0.3709,1.4321,-1.165,-0.9647,-1.6662,-0.8403,1.3158,0,-12.25,-79.06,-96.6,311.95,-86.41,-52.88,0,55.598,48.161247,11.567165,574,28.08,67.536,90.3,0 / 22,1002013,2018-11-08 18:15:36:261
0.3115,7.0616,5.477,0.0676,9.8021,0.2908,1.3841,-1.6176,-1.1603,-1.0388,0.8242,0.8723,0,-7.3,-88.08,-93.65,350.9,-88.26,-13.1,0,56.223,48.161247,11.567165,574,28.08,67.536,90.3,0 / 22,1004014,2018-11-08 18:15:38:262
3.2479,-0.6856,1.6999,-0.1572,9.8053,-0.0513,-1.8929,-0.4918,0.3669,-1.1931,0.4164,0.7087,0,-1.37,-98.34,-87.94,161.16,-68.42,154.09,0,55.46,48.161247,11.567165,574,28.08,67.536,90.3,0 / 22,1006012,2018-11-08 18:15:40:260
2.4383,-0.2708,1.1109,-0.5166,9.7923,0.1181,-1.6809,2.5468,4.6546,-0.1836,0.6567,-0.5989,0,3.01,-103.89,-89.24,157.27,-67,150.56,0,57.562,48.161247,11.567165,574,28.08,67.536,90.3,0 / 22,1008012,2018-11-08 18:15:42:260
0.8991,6.7048,1.0384,-1.0019,8.9349,-3.9159,0.9389,-5.2763,3.3687,2.3867,-0.5378,-1.3068,0,3.2,-102.69,-88.36,168.31,-65.66,165.65,0,57.103,48.161247,11.567165,574,28.08,67.536,90.3,0 / 22,1010013,2018-11-08 18:15:44:261
2.8253,13.3254,0.2287,-1.3335,9.4268,-2.3513,0.5744,-1.4941,3.2697,1.5862,0.4771,-1.6376,0,-0.17,-100.01,-84.04,157.04,-74,150.44,0,57.705,48.161247,11.567165,574,28.08,67.536,90.3,0 / 22,1012014,2018-11-08 18:15:46:262
3.758,13.1354,1.8448,-0.9634,9.5566,-1.9783,0.6254,1.6077,2.6474,-0.8491,-0.4383,0.3629,0,-7,-95.77,-93.98,344.49,-74.81,-15.15,0,54.661,48.161247,11.567165,574,28.08,67.536,90.3,0 / 22,1014012,2018-11-08 18:15:48:260
2.0734,11.1648,-0.6032,-0.6988,9.6347,-1.6895,1.6613,3.792,1.3251,-7.00E-04,-0.7337,-0.1259,0,-10.09,-86.01,-103.77,349.05,-76.63,-14.08,0,50.128,48.161247,11.567165,574,28.08,67.536,90.3,0 / 22,1016012,2018-11-08 18:15:50:260
2.4633,11.3279,0.8709,0.7925,9.4124,2.636,-0.0679,0.2589,-2.14,0.8829,-1.1022,-0.3259,0,-5.93,-82.37,-108.72,341.99,-73.7,-16.73,0,54.151,48.161247,11.567165,574,28.08,67.536,90.3,0 / 22,1018012,2018-11-08 18:15:52:260
-0.928,12.1534,1.2163,0.9806,9.3034,2.9421,-2.1422,0.8247,-1.7219,-0.5421,-0.6341,0.3819,0,-3.62,-81.91,-103.05,337.05,-71.56,-18.43,0,58.187,48.161247,11.567165,574,28.08,67.536,90.3,0 / 22,1020012,2018-11-08 18:15:54:260
-3.5363,8.0722,3.2423,1.1224,9.2845,2.9512,-0.9947,0.6236,-2.1593,-0.8163,-0.5588,0.371,0,-3.2,-89.37,-100.84,155.49,-73.65,148.72,0,50.119,48.161247,11.567165,574,28.08,67.536,90.3,0 / 22,1022012,2018-11-08 18:15:56:260
-4.5588,8.8407,3.1306,1.1188,9.227,3.1274,-1.3595,1.1994,-1.297,-1.7099,-0.3629,1.0822,0,-0.69,-88.38,-103.34,145.94,-75.7,139.36,0,57.107,48.161247,11.567165,574,28.08,67.536,90.3,0 / 22,1024012,2018-11-08 18:15:58:260
0.2714,6.9653,2.6703,-1.2032,9.4674,-2.2565,3.1681,-2.6003,2.2042,-1.7258,-0.6159,0.2531,0,0.38,-95.42,-98.98,156.88,-74.88,151.93,0,59.264,48.161247,11.567165,574,28.08,67.536,90.3,0 / 22,1026012,2018-11-08 18:16:00:260
-3.7378,12.0312,4.0727,-1.3979,9.3944,-2.4415,4.192,2.9616,2.8336,-0.3248,0.6519,-0.8202,0,6.93,-94.64,-83.92,152.98,-73.33,150.21,0,58.829,48.161247,11.567165,574,28.08,67.536,90.3,0 / 22,1028013,2018-11-08 18:16:02:261
-0.6087,5.122,-3.9986,-0.9558,9.7306,-0.7571,0.8015,-1.876,5.8337,-1.1191,-1.2785,0.8433,0,12.95,-90.5,-87.45,150.74,-66.67,149.5,0,59.826,48.161247,11.567165,574,28.08,67.536,90.3,0 / 22,1030013,2018-11-08 18:16:04:261
-1.6926,7.734,-4.6012,-0.7408,9.7736,-0.3135,-1.5153,2.2656,4.459,-1.4438,0.5692,0.3517,0,19.93,-99.24,-80.06,148.35,-67.33,150.05,0,58.935,48.161247,11.567165,574,28.08,67.536,90.3,0 / 22,1032012,2018-11-08 18:16:06:260
-0.211,3.7142,-4.6524,-1.8373,8.7789,-3.9655,2.3258,-5.3456,2.6672,-1.3368,-0.0726,0.5242,0,17.03,-102.16,-80.78,154.74,-63.53,155.14,0,56.525,48.161247,11.567165,574,28.08,67.536,90.3,22-Jun,1034013,2018-11-08 18:16:08:261
-0.5148,2.9401,-3.4049,-2.0087,8.9234,-3.5367,2.1932,-4.9258,2.3631,3.0864,-2.079,-1.1762,0,6.28,-107.36,-72.79,311.33,-73.78,-24.55,0,57.843,48.161247,11.567165,574,28.08,67.536,90.3,0 / 22,1036012,2018-11-08 18:16:10:260
0.743,10.8489,0.9756,-1.5948,9.2815,-2.7352,1.4718,-4.466,3.2267,1.47,0.1553,-1.8795,0,-6.57,-96.06,-89.14,330.7,-73.38,-24.02,0,57.875,48.161247,11.567165,574,28.08,67.536,90.3,0 / 22,1038012,2018-11-08 18:16:12:260
0.0098,9.5673,2.1694,1.0051,9.4642,2.3641,-0.6006,0.5454,-0.556,-0.807,-0.3619,0.4045,0,-20.46,-86.96,-98.96,344.37,-74.81,-23.03,0,58.009,48.161247,11.567165,574,28.08,67.536,90.3,0 / 22,1040013,2018-11-08 18:16:14:261
0.7506,8.6704,0.3909,0.5593,9.6137,1.853,-0.9835,0.0947,-1.8514,-0.0384,-0.7333,0.0046,0,-10.4,-88.2,-107.51,346.01,-78.62,-16.8,0,56.04,48.161247,11.567165,574,28.08,67.536,90.3,0 / 22,1042012,2018-11-08 18:16:16:260
-0.3376,8.0115,0.5498,0.1721,9.7891,0.5601,0.0455,-0.7686,-0.4531,-1.8081,-1.1268,1.3294,0,-16.48,-107.71,-101.81,167.27,-73.39,155.08,0,58.608,48.161247,11.567165,574,28.08,67.536,90.3,0 / 22,1044013,2018-11-08 18:16:18:261
-0.6679,9.5531,-0.1598,-1.3491,9.5312,-1.8726,-0.1872,3.8696,-0.2741,-0.7985,-0.0878,0.4945,0,25.7,-118.38,-66.41,157.38,-85.49,176.06,0,61.193,48.161247,11.567165,574,28.08,67.536,90.3,0 / 22,1046012,2018-11-08 18:16:20:260
1.7409,8.4327,-2.0069,-0.9299,9.7577,0.3042,1.7209,-0.0869,-0.6202,-0.0304,-0.7651,0.2513,0,-12.75,-111.67,-72.68,90.69,-84.27,71.89,0,57.968,48.161247,11.567165,574,28.08,67.536,90.3,0 / 22,1048013,2018-11-08 18:16:22:261
-1.702,3.5788,0.4283,-1.9501,8.4164,-4.6403,0.9775,-6.5133,2.8355,-1.7142,0.7068,0.4445,0,-3.96,-99.8,-63.17,168.57,-59.12,157.2,0,58.458,48.161247,11.567165,574,28.08,67.536,90.3,0 / 22,1050013,2018-11-08 18:16:24:261
0.1841,5.7664,-0.6115,-0.4249,9.6324,-1.7905,0.2539,-2.512,0.4727,0.1949,-0.0858,-0.0148,0,-18.95,-102.2,-69.14,173.35,-80.6,156.49,0,57.581,48.161247,11.567165,574,28.08,67.536,90.3,0 / 22,1052012,2018-11-08 18:16:26:260
-0.1216,1.5195,-2.6458,-0.7744,9.747,-0.7529,-0.847,4.3921,0.6881,-0.6658,-0.6713,0.3257,0,-18.52,-98.93,-70.25,177.65,-57.67,161.11,0,57.327,48.161247,11.567165,574,28.08,67.536,90.3,0 / 22,1054013,2018-11-08 18:16:28:261
-1.0341,2.7397,-3.7326,-1.922,8.1744,-5.0651,1.7745,-2.6989,1.7638,-0.6881,0.2483,-0.4292,0,-0.03,-91.66,-77.48,166.15,-56.47,159.22,0,57.551,48.161247,11.567165,574,28.08,67.536,90.3,0 / 22,1056012,2018-11-08 18:16:30:260
-1.4493,3.0366,-0.5348,-1.5963,8.4844,-4.6515,0.4361,-4.6699,2.1124,-1.7917,0.6397,0.44,0,-7.21,-97.72,-79.8,170.58,-59.9,161.06,0,57.41,48.161247,11.567165,574,28.08,67.536,90.3,0 / 22,1058013,2018-11-08 18:16:32:261
0.9603,15.2826,-4.2423,-0.1115,9.515,-2.3711,0.696,7.5184,-2.5524,0.1316,-0.0547,0.2134,0,-0.65,-97.99,-80.41,166.17,-83.57,163.65,0,54.749,48.161247,11.567165,574,28.08,67.536,90.3,0 / 22,1060013,2018-11-08 18:16:34:261
-1.6385,18.7512,-1.4892,0.0361,9.8066,-0.0011,-1.0537,-3.7317,0.3364,-0.3104,-0.0124,0.1764,0,13.57,-98.2,-103.21,132.52,-85.79,137.4,0,58.249,48.161247,11.567165,574,28.08,67.536,90.3,0 / 22,1062012,2018-11-08 18:16:36:260
1.644,17.9146,3.6033,-1.2187,9.3549,-2.678,-1.4498,-1.9402,-0.8209,-0.4598,0.4708,-0.8638,0,43.38,-80.91,-116.06,141.09,-72.54,155.53,0,58.606,48.161247,11.567165,574,28.08,67.536,90.3,0 / 22,1064012,2018-11-08 18:16:38:260
-0.5086,7.2571,-1.6015,-1.0746,9.354,-2.742,1.2297,-3.2838,0.4931,-1.7043,0.8902,0.5943,0,34.98,-68.43,-94.88,144.01,-72.52,158.6,0,57.284,48.161247,11.567165,574,28.08,67.536,90.3,0 / 22,1066013,2018-11-08 18:16:40:261
5.3558,8.5173,-1.616,0.787,9.7579,0.5782,3.337,-1.8738,-1.6718,-0.1101,-0.597,0.2892,0,28.95,-64.95,-97.54,335.93,-80.84,-4.94,0,51.675,48.161247,11.567165,574,28.08,67.536,90.3,0 / 22,1068012,2018-11-08 18:16:42:260
-0.1342,7.7729,-1.4392,1.1669,9.7359,0.1445,2.0201,0.4395,1.1642,-0.661,1.0099,-0.0191,0,-21.62,-62.3,-88.29,209.49,-79.96,-161.55,0,56.764,48.161247,11.567165,574,28.08,67.536,90.3,0 / 22,1070012,2018-11-08 18:16:44:260
0.3189,8.1693,0.6356,0.3896,9.7049,1.3539,-0.0086,-0.5092,-0.2585,-0.0115,-0.523,0.2536,0,-6.89,-58.46,-101.4,346.69,-81.74,-16.05,0,58.804,48.161247,11.567165,574,28.08,67.536,90.3,0 / 22,1072013,2018-11-08 18:16:46:261
3.0941,17.4986,0.2154,-1.2709,9.5709,-1.7184,0.2493,4.3304,1.1357,-0.2141,0.5624,0.9396,0,-14.57,-67.84,-87.43,156.63,-77.41,143.51,0,59.064,48.161247,11.567165,574,28.08,67.536,90.3,0 / 22,1074012,2018-11-08 18:16:48:260
1.7564,10.096,-2.09,1.036,9.6491,-1.4111,1.8134,2.6643,-0.17,0.4622,-0.504,-1.2979,0,-28.73,-91.85,-73.86,340.74,-78.9,-36.1,0,58.097,48.161247,11.567165,574,28.08,67.536,90.3,0 / 20,1076013,2018-11-08 18:16:50:261
-1.5275,10.4272,4.8879,0.1898,9.803,-0.1906,-1.5184,-1.3115,3.1381,-0.0367,-2.1097,0.4017,0,21,-117.11,-46.54,97.9,-83.97,108.27,0,56.954,48.161247,11.567165,574,28.08,67.536,90.3,0 / 22,1078013,2018-11-08 18:16:52:261
-1.5224,8.8503,-0.4768,-0.5448,9.7893,0.2072,-0.5629,0.1278,-0.4852,0.3353,0.0025,0.7815,0,30.82,-121.48,-113.68,56.94,-86.59,69.18,0,55.459,48.161247,11.567165,574,28.08,67.536,90.3,0 / 22,1080012,2018-11-08 18:16:54:260
4.4611,5.9754,-4.3325,1.4204,9.6973,-0.3406,0.8245,0.0318,-1.3902,-1.2044,0.3268,-0.2706,0,10.8,-97.15,-103.27,243.44,-81.43,-103.49,0,55.721,48.161247,11.567165,574,28.08,67.536,90.3,0 / 22,1082013,2018-11-08 18:16:56:261
-2.0457,8.754,1.2364,0.4861,9.7848,0.4383,-2.432,-0.1663,1.1609,-0.3093,0.3035,0.057,0,7.79,-93.22,-112.51,221.56,-79.37,-129.07,0,54.199,48.161247,11.567165,574,28.08,67.536,90.3,0 / 22,1084012,2018-11-08 18:16:58:260
0.8372,8.6675,1.6306,0.2243,9.669,1.6219,0.5451,-0.0452,0.1713,-0.0046,0.4056,0.0448,0,23.33,-74.45,-97.3,340.76,-80.98,-3.48,0,55.738,48.161247,11.567165,574,28.08,67.536,90.3,0 / 22,1086013,2018-11-08 18:17:00:261
